{
  "resourceType": "Bundle",
  "id": "ab2539ee-fd55-4abc-9898-d4c1520dd2ba",
  "meta": {
    "profile" : [
      "https://fhir.virtually.healthcare/StructureDefinition/FHIRDocument"
    ]
  },
  "identifier": {
    "use": "usual",
    "system": "https://tools.ietf.org/html/rfc4122",
    "value": "cc7525b0-3b39-4f4b-845b-850c2230721e",
    "assigner": {
      "identifier": {
        "system": "https://fhir.nhs.uk/Id/ods-organization-code",
        "value": "F83004"
      }
    }
  },
  "type": "document",
  "timestamp": "2024-11-08T15:51:00.000+00:00",
  "entry": [
    {
      "fullUrl": "urn:uuid:cc7525b0-3b39-4f4b-845b-850c2230721e",
      "resource": {
        "resourceType": "Composition",
        "id": "ab2539ee-fd55-4abc-9898-d4c1520dd2ba",
        "identifier": {
          "use": "usual",
          "system": "https://tools.ietf.org/html/rfc4122",
          "value": "cc7525b0-3b39-4f4b-845b-850c2230721e",
          "assigner": {
            "identifier": {
              "system": "https://fhir.nhs.uk/Id/ods-organization-code",
              "value": "F83004"
            }
          }
        },
        "status": "final",
        "type": {
          "coding": [
            {
              "system": "http://snomed.info/sct",
              "code": "823651000000106",
              "display": "Clinical note"
            }
          ]
        },
        "subject": {
          "reference": "urn:uuid:8f6afa2e-c142-4f06-82ec-290c3f6b6e6d",
          "type": "Patient"
        },
        "encounter": {
          "reference": "urn:uuid:ab2539ee-fd55-4abc-9898-d4c1520dd2ba",
          "identifier": {
            "system": "https://emis.com/Id/Consultation/GUID",
            "value": "ab2539ee-fd55-4abc-9898-d4c1520dd2ba",
            "assigner": {
              "identifier": {
                "system": "https://fhir.nhs.uk/Id/ods-organization-code",
                "value": "F83004"
              }
            }
          }
        },
        "date": "2024-11-08T15:51:00+00:00",
        "author": [
          {
            "reference": "urn:uuid:a716058c-f9d5-4537-b1e7-d021bd2185a3",
            "type": "Practitioner",
            "identifier": {
              "system": "https://fhir.hl7.org.uk/Id/professional-code",
              "value": "25825845"
            },
            "display": "Dr HealthOnline Test"
          }
        ],
        "title": "Clinical note",
        "section": [
          {
            "title": "Examination",
            "code": {
              "coding": [
                {
                  "system": "http://loinc.org",
                  "code": "61149-1",
                  "display": "Objective Narrative"
                }
              ],
              "text": "Examination"
            },
            "text": {
              "status": "generated",
              "div": "<div xmlns=\"http://www.w3.org/1999/xhtml\"><p>Body weight, 79 kg</p><p>Body mass index, 24.66 kg/m2</p></div>"
            },
            "entry": [
              {
                "reference": "urn:uuid:d3adf58c-bd92-4d45-b598-d76e2210a4a5",
                "type": "Observation",
                "display": "Body weight, 79 kg"
              },
              {
                "reference": "urn:uuid:9f8e11e9-381e-434c-b9da-a309ee669f83",
                "type": "Observation",
                "display": "Body mass index, 24.66 kg/m2"
              }
            ]
          },
          {
            "title": "Procedure",
            "code": {
              "coding": [
                {
                  "system": "http://loinc.org",
                  "code": "61150-9",
                  "display": "Subjective Narrative"
                }
              ],
              "text": "Procedure"
            },
            "text": {
              "status": "generated",
              "div": "<div xmlns=\"http://www.w3.org/1999/xhtml\"><p> <i>getting hip pain</i></p></div>"
            }
          },
          {
            "title": "Document",
            "code": {
              "coding": [
                {
                  "system": "http://loinc.org",
                  "code": "61150-9",
                  "display": "Subjective Narrative"
                }
              ],
              "text": "Document"
            },
            "text": {
              "status": "generated",
              "div": "<div xmlns=\"http://www.w3.org/1999/xhtml\"><p>Referral Letter (08-Nov-2024) <i>for Refer for thyroid test</i></p></div>"
            },
            "entry": [
              {
                "reference": "urn:uuid:900566b1-a93d-4cb1-998a-a5141e2127bf",
                "type": "DocumentReference"
              }
            ]
          },
          {
            "title": "Allergy",
            "code": {
              "coding": [
                {
                  "system": "http://loinc.org",
                  "code": "61150-9",
                  "display": "Subjective Narrative"
                }
              ],
              "text": "Allergy"
            },
            "text": {
              "status": "generated",
              "div": "<div xmlns=\"http://www.w3.org/1999/xhtml\"><p>Adverse reaction to drug <i>aspirin</i></p><p>Allergy to aspirin</p></div>"
            },
            "entry": [
              {
                "reference": "urn:uuid:b795e488-21eb-49cb-9360-d4cb7a02dc6e",
                "type": "AllergyIntolerance",
                "display": "Adverse reaction to drug"
              },
              {
                "reference": "urn:uuid:6e1a1654-a02b-4638-bad1-c64b65fd09f3",
                "type": "AllergyIntolerance",
                "display": "Allergy to aspirin"
              }
            ]
          },
          {
            "title": "Test Request",
            "code": {
              "coding": [
                {
                  "system": "http://loinc.org",
                  "code": "30954-2",
                  "display": "Relevant diagnostic tests/laboratory data Narrative"
                }
              ],
              "text": "Test Request"
            },
            "text": {
              "status": "generated",
              "div": "<div xmlns=\"http://www.w3.org/1999/xhtml\"><p>Venous blood specimen</p></div>"
            },
            "entry": [
              {
                "reference": "urn:uuid:3fe68913-6016-46b1-a20a-fb97fd125ea1",
                "type": "Observation",
                "display": "Venous blood specimen"
              }
            ]
          },
          {
            "title": "Follow up",
            "code": {
              "coding": [
                {
                  "system": "http://loinc.org",
                  "code": "18776-5",
                  "display": "Plan of care note"
                }
              ],
              "text": "Follow up"
            },
            "text": {
              "status": "generated",
              "div": "<div xmlns=\"http://www.w3.org/1999/xhtml\"><p>Medication review 08/12/2024</p></div>"
            },
            "entry": [
              {
                "reference": "urn:uuid:70efbefb-9985-4579-90ed-fc1b36ef2905",
                "type": "Task",
                "display": "Medication review 08/12/2024"
              }
            ]
          },
          {
            "title": "Family History",
            "code": {
              "coding": [
                {
                  "system": "http://loinc.org",
                  "code": "61150-9",
                  "display": "Subjective Narrative"
                }
              ],
              "text": "Family History"
            },
            "text": {
              "status": "generated",
              "div": "<div xmlns=\"http://www.w3.org/1999/xhtml\"><p>Family history of breast cancer (Uncle)</p></div>"
            },
            "entry": [
              {
                "reference": "urn:uuid:0242b574-fa7b-4614-9e7d-2a5736b58eda",
                "type": "Observation",
                "display": "Family history of breast cancer (Uncle)"
              }
            ]
          },
          {
            "title": "Problem",
            "code": {
              "coding": [
                {
                  "system": "http://loinc.org",
                  "code": "10154-3",
                  "display": "Chief complaint Narrative - Reported"
                }
              ],
              "text": "Problem"
            },
            "text": {
              "status": "generated",
              "div": "<div xmlns=\"http://www.w3.org/1999/xhtml\"><p>Current non-smoker</p></div>"
            },
            "entry": [
              {
                "reference": "urn:uuid:9c58bbb7-7211-48fc-8368-1b88d04fc6cf",
                "type": "Observation",
                "display": "Current non-smoker"
              }
            ]
          },
          {
            "title": "Assessment",
            "code": {
              "coding": [
                {
                  "system": "http://loinc.org",
                  "code": "61150-9",
                  "display": "Subjective Narrative"
                }
              ],
              "text": "Assessment"
            },
            "text": {
              "status": "generated",
              "div": "<div xmlns=\"http://www.w3.org/1999/xhtml\"><p>Hypertension monitoring</p><p>Medication review done</p></div>"
            },
            "entry": [
              {
                "reference": "urn:uuid:0abe00a6-7142-4cac-8478-042516975bf3",
                "type": "Observation",
                "display": "Hypertension monitoring"
              },
              {
                "reference": "urn:uuid:b26a203d-51d9-4dfe-a6f1-143dec6a7d28",
                "type": "Observation",
                "display": "Medication review done"
              }
            ]
          },
          {
            "title": "Additional",
            "code": {
              "coding": [
                {
                  "system": "http://loinc.org",
                  "code": "61150-9",
                  "display": "Subjective Narrative"
                }
              ],
              "text": "Additional"
            },
            "text": {
              "status": "generated",
              "div": "<div xmlns=\"http://www.w3.org/1999/xhtml\"><p>Excepted from hypertension quality indicators - patient unsuitable</p><p>Dietary advice</p><p>ECG requested</p></div>"
            },
            "entry": [
              {
                "reference": "urn:uuid:d47702bf-a108-41a2-8f1f-0e34f718a654",
                "type": "Observation",
                "display": "Excepted from hypertension quality indicators - patient unsuitable"
              },
              {
                "reference": "urn:uuid:77828dc0-c740-4d22-8543-be5e44036c79",
                "type": "Observation",
                "display": "Dietary advice"
              },
              {
                "reference": "urn:uuid:22ba9307-b02e-4424-9856-3c424b2cdfe9",
                "type": "Observation",
                "display": "ECG requested"
              }
            ]
          },
          {
            "title": "Result",
            "code": {
              "coding": [
                {
                  "system": "http://loinc.org",
                  "code": "30954-2",
                  "display": "Relevant diagnostic tests/laboratory data Narrative"
                }
              ],
              "text": "Result"
            },
            "text": {
              "status": "generated",
              "div": "<div xmlns=\"http://www.w3.org/1999/xhtml\"><p>Serum cholesterol level, 123 mmol/L</p><p>Serum creatinine level, 123 umol/L</p></div>"
            },
            "entry": [
              {
                "reference": "urn:uuid:9955d4bb-51fb-41c3-9e24-182eb108dfe7",
                "type": "Observation",
                "display": "Serum cholesterol level, 123 mmol/L"
              },
              {
                "reference": "urn:uuid:44fa1523-ffef-4d71-ba05-4a38f629b02e",
                "type": "Observation",
                "display": "Serum creatinine level, 123 umol/L"
              }
            ]
          }
        ]
      }
    },
    {
      "fullUrl": "urn:uuid:8f6afa2e-c142-4f06-82ec-290c3f6b6e6d",
      "resource": {
        "resourceType": "Patient",
        "id": "8f6afa2e-c142-4f06-82ec-290c3f6b6e6d",
        "identifier": [
          {
            "use": "usual",
            "type": {
              "coding": [
                {
                  "system": "http://terminology.hl7.org/CodeSystem/v2-0203",
                  "code": "MR"
                }
              ]
            },
            "system": "https://emis.com/Id/Patient/DBID",
            "value": "3",
            "assigner": {
              "identifier": {
                "system": "https://fhir.nhs.uk/Id/ods-organization-code",
                "value": "F83004"
              }
            }
          },
          {
            "use": "official",
            "type": {
              "coding": [
                {
                  "system": "http://terminology.hl7.org/CodeSystem/v2-0203",
                  "code": "NH"
                }
              ]
            },
            "system": "https://fhir.nhs.uk/Id/nhs-number",
            "value": "5393501883"
          }
        ],
        "active": true,
        "name": [
          {
            "family": "O'Donnell",
            "given": [
              "Daniel"
            ],
            "prefix": [
              "Mr"
            ]
          }
        ],
        "gender": "male",
        "birthDate": "1947-12-30",
        "address": [
          {
            "line": [
              "42 The Avenue",
              "Crimbles"
            ],
            "city": "East Hardwick",
            "postalCode": "WF16"
          }
        ],
        "generalPractitioner": [
          {
            "identifier": {
              "system": "https://fhir.nhs.uk/Id/ods-organization-code",
              "value": "F83004"
            }
          }
        ]
      }
    },
    {
      "fullUrl": "urn:uuid:d3adf58c-bd92-4d45-b598-d76e2210a4a5",
      "resource": {
        "resourceType": "Observation",
        "id": "d3adf58c-bd92-4d45-b598-d76e2210a4a5",
        "identifier": [
          {
            "use": "secondary",
            "system": "https://emis.com/Id/Event/DBID",
            "value": "361",
            "assigner": {
              "identifier": {
                "system": "https://fhir.nhs.uk/Id/ods-organization-code",
                "value": "F83004"
              }
            }
          },
          {
            "use": "usual",
            "system": "https://emis.com/Id/Event/GUID",
            "value": "d3adf58c-bd92-4d45-b598-d76e2210a4a5",
            "assigner": {
              "identifier": {
                "system": "https://fhir.nhs.uk/Id/ods-organization-code",
                "value": "F83004"
              }
            }
          }
        ],
        "status": "unknown",
        "category": [
          {
            "coding": [
              {
                "system": "http://terminology.hl7.org/CodeSystem/observation-category",
                "code": "vital-signs"
              }
            ]
          }
        ],
        "code": {
          "coding": [
            {
              "system": "http://snomed.info/sct",
              "code": "27113001",
              "display": "Body weight"
            }
          ],
          "text": "Body weight, 79 kg"
        },
        "subject": {
          "reference": "urn:uuid:8f6afa2e-c142-4f06-82ec-290c3f6b6e6d",
          "type": "Patient"
        },
        "encounter": {
          "reference": "urn:uuid:ab2539ee-fd55-4abc-9898-d4c1520dd2ba",
          "identifier": {
            "system": "https://emis.com/Id/Consultation/GUID",
            "value": "ab2539ee-fd55-4abc-9898-d4c1520dd2ba",
            "assigner": {
              "identifier": {
                "system": "https://fhir.nhs.uk/Id/ods-organization-code",
                "value": "F83004"
              }
            }
          }
        },
        "effectiveDateTime": "2024-11-08T15:51:00+00:00",
        "issued": "2024-11-08T15:51:00.000+00:00",
        "performer": [
          {
            "reference": "urn:uuid:a716058c-f9d5-4537-b1e7-d021bd2185a3",
            "type": "Practitioner",
            "identifier": {
              "system": "https://fhir.hl7.org.uk/Id/professional-code",
              "value": "25825845"
            },
            "display": "Dr HealthOnline Test"
          }
        ],
        "valueQuantity": {
          "value": 79,
          "unit": "kg",
          "system": "http://unitsofmeasure.org",
          "code": "kg"
        }
      }
    },
    {
      "fullUrl": "urn:uuid:9f8e11e9-381e-434c-b9da-a309ee669f83",
      "resource": {
        "resourceType": "Observation",
        "id": "9f8e11e9-381e-434c-b9da-a309ee669f83",
        "identifier": [
          {
            "use": "secondary",
            "system": "https://emis.com/Id/Event/DBID",
            "value": "362",
            "assigner": {
              "identifier": {
                "system": "https://fhir.nhs.uk/Id/ods-organization-code",
                "value": "F83004"
              }
            }
          },
          {
            "use": "usual",
            "system": "https://emis.com/Id/Event/GUID",
            "value": "9f8e11e9-381e-434c-b9da-a309ee669f83",
            "assigner": {
              "identifier": {
                "system": "https://fhir.nhs.uk/Id/ods-organization-code",
                "value": "F83004"
              }
            }
          }
        ],
        "status": "unknown",
        "category": [
          {
            "coding": [
              {
                "system": "http://terminology.hl7.org/CodeSystem/observation-category",
                "code": "vital-signs"
              }
            ]
          }
        ],
        "code": {
          "coding": [
            {
              "system": "http://snomed.info/sct",
              "code": "60621009",
              "display": "Body mass index"
            }
          ],
          "text": "Body mass index, 24.66 kg/m2"
        },
        "subject": {
          "reference": "urn:uuid:8f6afa2e-c142-4f06-82ec-290c3f6b6e6d",
          "type": "Patient"
        },
        "encounter": {
          "reference": "urn:uuid:ab2539ee-fd55-4abc-9898-d4c1520dd2ba",
          "identifier": {
            "system": "https://emis.com/Id/Consultation/GUID",
            "value": "ab2539ee-fd55-4abc-9898-d4c1520dd2ba",
            "assigner": {
              "identifier": {
                "system": "https://fhir.nhs.uk/Id/ods-organization-code",
                "value": "F83004"
              }
            }
          }
        },
        "effectiveDateTime": "2024-11-08T15:51:00+00:00",
        "issued": "2024-11-08T15:51:00.000+00:00",
        "performer": [
          {
            "reference": "urn:uuid:a716058c-f9d5-4537-b1e7-d021bd2185a3",
            "type": "Practitioner",
            "identifier": {
              "system": "https://fhir.hl7.org.uk/Id/professional-code",
              "value": "25825845"
            },
            "display": "Dr HealthOnline Test"
          }
        ],
        "valueQuantity": {
          "value": 24.66,
          "unit": "kg/m2",
          "system": "http://unitsofmeasure.org",
          "code": "kg/m2"
        }
      }
    },
    {
      "fullUrl": "urn:uuid:900566b1-a93d-4cb1-998a-a5141e2127bf",
      "resource": {
        "resourceType": "DocumentReference",
        "id": "364",
        "identifier": [
          {
            "use": "secondary",
            "system": "https://emis.com/Id/Attachment/DBID",
            "value": "364",
            "assigner": {
              "identifier": {
                "system": "https://fhir.nhs.uk/Id/ods-organization-code",
                "value": "F83004"
              }
            }
          },
          {
            "use": "usual",
            "system": "https://emis.com/Id/Attachment/GUID",
            "value": "900566b1-a93d-4cb1-998a-a5141e2127bf",
            "assigner": {
              "identifier": {
                "system": "https://fhir.nhs.uk/Id/ods-organization-code",
                "value": "F83004"
              }
            }
          }
        ],
        "status": "current",
        "type": {
          "coding": [
            {
              "system": "http://snomed.info/sct",
              "code": "25611000000107",
              "display": "Referral letter"
            }
          ],
          "text": "Referral Letter (08-Nov-2024) for Refer for thyroid test"
        },
        "subject": {
          "reference": "urn:uuid:8f6afa2e-c142-4f06-82ec-290c3f6b6e6d",
          "type": "Patient"
        },
        "date": "2024-11-08T00:00:00.000+00:00",
        "author": [
          {
            "reference": "urn:uuid:a716058c-f9d5-4537-b1e7-d021bd2185a3",
            "type": "Practitioner",
            "identifier": {
              "system": "https://fhir.hl7.org.uk/Id/professional-code",
              "value": "25825845"
            },
            "display": "Dr HealthOnline Test"
          }
        ],
        "content": [
          {
            "attachment": {
              "url": "Binary/1350ff0a-9660-445d-b835-97ef764a9436",
              "title": "2411081558_Referral Letter.rtf"
            }
          }
        ],
        "context": {
          "encounter": [
            {
              "reference": "urn:uuid:ab2539ee-fd55-4abc-9898-d4c1520dd2ba",
              "identifier": {
                "system": "https://emis.com/Id/Consultation/GUID",
                "value": "ab2539ee-fd55-4abc-9898-d4c1520dd2ba",
                "assigner": {
                  "identifier": {
                    "system": "https://fhir.nhs.uk/Id/ods-organization-code",
                    "value": "F83004"
                  }
                }
              }
            }
          ],
          "event": [
            {
              "coding": [
                {
                  "system": "http://snomed.info/sct",
                  "code": "25611000000107",
                  "display": "Referral letter"
                }
              ],
              "text": "Referral Letter (08-Nov-2024) for Refer for thyroid test"
            }
          ]
        }
      }
    },
    {
      "fullUrl": "urn:uuid:b795e488-21eb-49cb-9360-d4cb7a02dc6e",
      "resource": {
        "resourceType": "AllergyIntolerance",
        "id": "b795e488-21eb-49cb-9360-d4cb7a02dc6e",
        "identifier": [
          {
            "use": "secondary",
            "system": "https://emis.com/Id/Event/DBID",
            "value": "365",
            "assigner": {
              "identifier": {
                "system": "https://fhir.nhs.uk/Id/ods-organization-code",
                "value": "F83004"
              }
            }
          },
          {
            "use": "usual",
            "system": "https://emis.com/Id/Event/GUID",
            "value": "b795e488-21eb-49cb-9360-d4cb7a02dc6e",
            "assigner": {
              "identifier": {
                "system": "https://fhir.nhs.uk/Id/ods-organization-code",
                "value": "F83004"
              }
            }
          }
        ],
        "clinicalStatus": {
          "coding": [
            {
              "system": "http://terminology.hl7.org/CodeSystem/allergyintolerance-clinical",
              "code": "active"
            }
          ]
        },
        "code": {
          "coding": [
            {
              "system": "http://snomed.info/sct",
              "code": "62014003",
              "display": "Adverse reaction to drug"
            }
          ],
          "text": "Adverse reaction to drug aspirin"
        },
        "patient": {
          "reference": "urn:uuid:8f6afa2e-c142-4f06-82ec-290c3f6b6e6d",
          "type": "Patient"
        },
        "encounter": {
          "reference": "urn:uuid:ab2539ee-fd55-4abc-9898-d4c1520dd2ba",
          "identifier": {
            "system": "https://emis.com/Id/Consultation/GUID",
            "value": "ab2539ee-fd55-4abc-9898-d4c1520dd2ba",
            "assigner": {
              "identifier": {
                "system": "https://fhir.nhs.uk/Id/ods-organization-code",
                "value": "F83004"
              }
            }
          }
        },
        "recordedDate": "2024-11-08T15:51:00+00:00",
        "recorder": {
          "reference": "urn:uuid:a716058c-f9d5-4537-b1e7-d021bd2185a3",
          "type": "Practitioner",
          "identifier": {
            "system": "https://fhir.hl7.org.uk/Id/professional-code",
            "value": "25825845"
          },
          "display": "Dr HealthOnline Test"
        }
      }
    },
    {
      "fullUrl": "urn:uuid:6e1a1654-a02b-4638-bad1-c64b65fd09f3",
      "resource": {
        "resourceType": "AllergyIntolerance",
        "id": "6e1a1654-a02b-4638-bad1-c64b65fd09f3",
        "identifier": [
          {
            "use": "secondary",
            "system": "https://emis.com/Id/Event/DBID",
            "value": "366",
            "assigner": {
              "identifier": {
                "system": "https://fhir.nhs.uk/Id/ods-organization-code",
                "value": "F83004"
              }
            }
          },
          {
            "use": "usual",
            "system": "https://emis.com/Id/Event/GUID",
            "value": "6e1a1654-a02b-4638-bad1-c64b65fd09f3",
            "assigner": {
              "identifier": {
                "system": "https://fhir.nhs.uk/Id/ods-organization-code",
                "value": "F83004"
              }
            }
          }
        ],
        "clinicalStatus": {
          "coding": [
            {
              "system": "http://terminology.hl7.org/CodeSystem/allergyintolerance-clinical",
              "code": "active"
            }
          ]
        },
        "code": {
          "coding": [
            {
              "system": "http://snomed.info/sct",
              "code": "293586001",
              "display": "Allergy to aspirin"
            }
          ],
          "text": "Allergy to aspirin"
        },
        "patient": {
          "reference": "urn:uuid:8f6afa2e-c142-4f06-82ec-290c3f6b6e6d",
          "type": "Patient"
        },
        "encounter": {
          "reference": "urn:uuid:ab2539ee-fd55-4abc-9898-d4c1520dd2ba",
          "identifier": {
            "system": "https://emis.com/Id/Consultation/GUID",
            "value": "ab2539ee-fd55-4abc-9898-d4c1520dd2ba",
            "assigner": {
              "identifier": {
                "system": "https://fhir.nhs.uk/Id/ods-organization-code",
                "value": "F83004"
              }
            }
          }
        },
        "recordedDate": "2024-11-08T15:51:00+00:00",
        "recorder": {
          "reference": "urn:uuid:a716058c-f9d5-4537-b1e7-d021bd2185a3",
          "type": "Practitioner",
          "identifier": {
            "system": "https://fhir.hl7.org.uk/Id/professional-code",
            "value": "25825845"
          },
          "display": "Dr HealthOnline Test"
        }
      }
    },
    {
      "fullUrl": "urn:uuid:3fe68913-6016-46b1-a20a-fb97fd125ea1",
      "resource": {
        "resourceType": "Observation",
        "id": "3fe68913-6016-46b1-a20a-fb97fd125ea1",
        "identifier": [
          {
            "use": "secondary",
            "system": "https://emis.com/Id/Event/DBID",
            "value": "367",
            "assigner": {
              "identifier": {
                "system": "https://fhir.nhs.uk/Id/ods-organization-code",
                "value": "F83004"
              }
            }
          },
          {
            "use": "usual",
            "system": "https://emis.com/Id/Event/GUID",
            "value": "3fe68913-6016-46b1-a20a-fb97fd125ea1",
            "assigner": {
              "identifier": {
                "system": "https://fhir.nhs.uk/Id/ods-organization-code",
                "value": "F83004"
              }
            }
          }
        ],
        "status": "unknown",
        "category": [
          {
            "coding": [
              {
                "system": "http://terminology.hl7.org/CodeSystem/observation-category",
                "code": "exam"
              }
            ]
          }
        ],
        "code": {
          "coding": [
            {
              "system": "http://snomed.info/sct",
              "code": "122555007",
              "display": "Venous blood specimen"
            }
          ],
          "text": "Venous blood specimen"
        },
        "subject": {
          "reference": "urn:uuid:8f6afa2e-c142-4f06-82ec-290c3f6b6e6d",
          "type": "Patient"
        },
        "encounter": {
          "reference": "urn:uuid:ab2539ee-fd55-4abc-9898-d4c1520dd2ba",
          "identifier": {
            "system": "https://emis.com/Id/Consultation/GUID",
            "value": "ab2539ee-fd55-4abc-9898-d4c1520dd2ba",
            "assigner": {
              "identifier": {
                "system": "https://fhir.nhs.uk/Id/ods-organization-code",
                "value": "F83004"
              }
            }
          }
        },
        "effectiveDateTime": "2024-11-08T00:00:00+00:00",
        "issued": "2024-11-08T00:00:00.000+00:00",
        "performer": [
          {
            "reference": "urn:uuid:a716058c-f9d5-4537-b1e7-d021bd2185a3",
            "type": "Practitioner",
            "identifier": {
              "system": "https://fhir.hl7.org.uk/Id/professional-code",
              "value": "25825845"
            },
            "display": "Dr HealthOnline Test"
          }
        ]
      }
    },
    {
      "fullUrl": "urn:uuid:70efbefb-9985-4579-90ed-fc1b36ef2905",
      "resource": {
        "resourceType": "Task",
        "id": "70efbefb-9985-4579-90ed-fc1b36ef2905",
        "identifier": [
          {
            "system": "https://emis.com/Id/Diary/DBID",
            "value": "368",
            "assigner": {
              "identifier": {
                "system": "https://fhir.nhs.uk/Id/ods-organization-code",
                "value": "F83004"
              }
            }
          },
          {
            "system": "https://emis.com/Id/Diary/GUID",
            "value": "70efbefb-9985-4579-90ed-fc1b36ef2905",
            "assigner": {
              "identifier": {
                "system": "https://fhir.nhs.uk/Id/ods-organization-code",
                "value": "F83004"
              }
            }
          }
        ],
        "status": "ready",
        "intent": "plan",
        "code": {
          "coding": [
            {
              "system": "http://snomed.info/sct",
              "code": "182836005",
              "display": "Medication review"
            }
          ],
          "text": "Medication review"
        },
        "for": {
          "reference": "urn:uuid:8f6afa2e-c142-4f06-82ec-290c3f6b6e6d",
          "type": "Patient"
        },
        "encounter": {
          "reference": "urn:uuid:ab2539ee-fd55-4abc-9898-d4c1520dd2ba",
          "identifier": {
            "system": "https://emis.com/Id/Consultation/GUID",
            "value": "ab2539ee-fd55-4abc-9898-d4c1520dd2ba",
            "assigner": {
              "identifier": {
                "system": "https://fhir.nhs.uk/Id/ods-organization-code",
                "value": "F83004"
              }
            }
          }
        },
        "executionPeriod": {
          "start": "2024-12-08T00:00:00+00:00"
        },
        "requester": {
          "reference": "urn:uuid:a716058c-f9d5-4537-b1e7-d021bd2185a3",
          "type": "Practitioner",
          "identifier": {
            "system": "https://fhir.hl7.org.uk/Id/professional-code",
            "value": "25825845"
          },
          "display": "Dr HealthOnline Test"
        },
        "note": [
          {
            "text": "need to check meds"
          }
        ]
      }
    },
    {
      "fullUrl": "urn:uuid:0242b574-fa7b-4614-9e7d-2a5736b58eda",
      "resource": {
        "resourceType": "Observation",
        "id": "0242b574-fa7b-4614-9e7d-2a5736b58eda",
        "identifier": [
          {
            "use": "secondary",
            "system": "https://emis.com/Id/Event/DBID",
            "value": "369",
            "assigner": {
              "identifier": {
                "system": "https://fhir.nhs.uk/Id/ods-organization-code",
                "value": "F83004"
              }
            }
          },
          {
            "use": "usual",
            "system": "https://emis.com/Id/Event/GUID",
            "value": "0242b574-fa7b-4614-9e7d-2a5736b58eda",
            "assigner": {
              "identifier": {
                "system": "https://fhir.nhs.uk/Id/ods-organization-code",
                "value": "F83004"
              }
            }
          }
        ],
        "status": "unknown",
        "category": [
          {
            "coding": [
              {
                "system": "http://terminology.hl7.org/CodeSystem/observation-category",
                "code": "social-history"
              }
            ]
          }
        ],
        "code": {
          "coding": [
            {
              "system": "http://snomed.info/sct",
              "code": "429740004",
              "display": "Family history of breast cancer"
            }
          ],
          "text": "Family history of breast cancer (Uncle)"
        },
        "subject": {
          "reference": "urn:uuid:8f6afa2e-c142-4f06-82ec-290c3f6b6e6d",
          "type": "Patient"
        },
        "encounter": {
          "reference": "urn:uuid:ab2539ee-fd55-4abc-9898-d4c1520dd2ba",
          "identifier": {
            "system": "https://emis.com/Id/Consultation/GUID",
            "value": "ab2539ee-fd55-4abc-9898-d4c1520dd2ba",
            "assigner": {
              "identifier": {
                "system": "https://fhir.nhs.uk/Id/ods-organization-code",
                "value": "F83004"
              }
            }
          }
        },
        "effectiveDateTime": "2024-11-08T15:51:00+00:00",
        "issued": "2024-11-08T15:51:00.000+00:00",
        "performer": [
          {
            "reference": "urn:uuid:a716058c-f9d5-4537-b1e7-d021bd2185a3",
            "type": "Practitioner",
            "identifier": {
              "system": "https://fhir.hl7.org.uk/Id/professional-code",
              "value": "25825845"
            },
            "display": "Dr HealthOnline Test"
          }
        ]
      }
    },
    {
      "fullUrl": "urn:uuid:9c58bbb7-7211-48fc-8368-1b88d04fc6cf",
      "resource": {
        "resourceType": "Observation",
        "id": "9c58bbb7-7211-48fc-8368-1b88d04fc6cf",
        "identifier": [
          {
            "use": "secondary",
            "system": "https://emis.com/Id/Event/DBID",
            "value": "370",
            "assigner": {
              "identifier": {
                "system": "https://fhir.nhs.uk/Id/ods-organization-code",
                "value": "F83004"
              }
            }
          },
          {
            "use": "usual",
            "system": "https://emis.com/Id/Event/GUID",
            "value": "9c58bbb7-7211-48fc-8368-1b88d04fc6cf",
            "assigner": {
              "identifier": {
                "system": "https://fhir.nhs.uk/Id/ods-organization-code",
                "value": "F83004"
              }
            }
          }
        ],
        "status": "unknown",
        "category": [
          {
            "coding": [
              {
                "system": "http://terminology.hl7.org/CodeSystem/observation-category",
                "code": "exam"
              }
            ]
          }
        ],
        "code": {
          "coding": [
            {
              "system": "http://snomed.info/sct",
              "code": "160618006",
              "display": "Current non-smoker"
            }
          ],
          "text": "Current non-smoker"
        },
        "subject": {
          "reference": "urn:uuid:8f6afa2e-c142-4f06-82ec-290c3f6b6e6d",
          "type": "Patient"
        },
        "encounter": {
          "reference": "urn:uuid:ab2539ee-fd55-4abc-9898-d4c1520dd2ba",
          "identifier": {
            "system": "https://emis.com/Id/Consultation/GUID",
            "value": "ab2539ee-fd55-4abc-9898-d4c1520dd2ba",
            "assigner": {
              "identifier": {
                "system": "https://fhir.nhs.uk/Id/ods-organization-code",
                "value": "F83004"
              }
            }
          }
        },
        "effectiveDateTime": "2024-11-08T15:51:00+00:00",
        "issued": "2024-11-08T15:51:00.000+00:00",
        "performer": [
          {
            "reference": "urn:uuid:a716058c-f9d5-4537-b1e7-d021bd2185a3",
            "type": "Practitioner",
            "identifier": {
              "system": "https://fhir.hl7.org.uk/Id/professional-code",
              "value": "25825845"
            },
            "display": "Dr HealthOnline Test"
          }
        ]
      }
    },
    {
      "fullUrl": "urn:uuid:0abe00a6-7142-4cac-8478-042516975bf3",
      "resource": {
        "resourceType": "Observation",
        "id": "0abe00a6-7142-4cac-8478-042516975bf3",
        "identifier": [
          {
            "use": "secondary",
            "system": "https://emis.com/Id/Event/DBID",
            "value": "372",
            "assigner": {
              "identifier": {
                "system": "https://fhir.nhs.uk/Id/ods-organization-code",
                "value": "F83004"
              }
            }
          },
          {
            "use": "usual",
            "system": "https://emis.com/Id/Event/GUID",
            "value": "0abe00a6-7142-4cac-8478-042516975bf3",
            "assigner": {
              "identifier": {
                "system": "https://fhir.nhs.uk/Id/ods-organization-code",
                "value": "F83004"
              }
            }
          }
        ],
        "status": "unknown",
        "category": [
          {
            "coding": [
              {
                "system": "http://terminology.hl7.org/CodeSystem/observation-category",
                "code": "exam"
              }
            ]
          }
        ],
        "code": {
          "coding": [
            {
              "system": "http://snomed.info/sct",
              "code": "275944005",
              "display": "Hypertension monitoring"
            }
          ],
          "text": "Hypertension monitoring"
        },
        "subject": {
          "reference": "urn:uuid:8f6afa2e-c142-4f06-82ec-290c3f6b6e6d",
          "type": "Patient"
        },
        "encounter": {
          "reference": "urn:uuid:ab2539ee-fd55-4abc-9898-d4c1520dd2ba",
          "identifier": {
            "system": "https://emis.com/Id/Consultation/GUID",
            "value": "ab2539ee-fd55-4abc-9898-d4c1520dd2ba",
            "assigner": {
              "identifier": {
                "system": "https://fhir.nhs.uk/Id/ods-organization-code",
                "value": "F83004"
              }
            }
          }
        },
        "effectiveDateTime": "2024-11-08T15:51:00+00:00",
        "issued": "2024-11-08T15:51:00.000+00:00",
        "performer": [
          {
            "reference": "urn:uuid:a716058c-f9d5-4537-b1e7-d021bd2185a3",
            "type": "Practitioner",
            "identifier": {
              "system": "https://fhir.hl7.org.uk/Id/professional-code",
              "value": "25825845"
            },
            "display": "Dr HealthOnline Test"
          }
        ]
      }
    },
    {
      "fullUrl": "urn:uuid:b26a203d-51d9-4dfe-a6f1-143dec6a7d28",
      "resource": {
        "resourceType": "Observation",
        "id": "b26a203d-51d9-4dfe-a6f1-143dec6a7d28",
        "identifier": [
          {
            "use": "secondary",
            "system": "https://emis.com/Id/Event/DBID",
            "value": "373",
            "assigner": {
              "identifier": {
                "system": "https://fhir.nhs.uk/Id/ods-organization-code",
                "value": "F83004"
              }
            }
          },
          {
            "use": "usual",
            "system": "https://emis.com/Id/Event/GUID",
            "value": "b26a203d-51d9-4dfe-a6f1-143dec6a7d28",
            "assigner": {
              "identifier": {
                "system": "https://fhir.nhs.uk/Id/ods-organization-code",
                "value": "F83004"
              }
            }
          }
        ],
        "status": "unknown",
        "category": [
          {
            "coding": [
              {
                "system": "http://terminology.hl7.org/CodeSystem/observation-category",
                "code": "exam"
              }
            ]
          }
        ],
        "code": {
          "coding": [
            {
              "system": "http://snomed.info/sct",
              "code": "314530002",
              "display": "Medication review done"
            }
          ],
          "text": "Medication review done"
        },
        "subject": {
          "reference": "urn:uuid:8f6afa2e-c142-4f06-82ec-290c3f6b6e6d",
          "type": "Patient"
        },
        "encounter": {
          "reference": "urn:uuid:ab2539ee-fd55-4abc-9898-d4c1520dd2ba",
          "identifier": {
            "system": "https://emis.com/Id/Consultation/GUID",
            "value": "ab2539ee-fd55-4abc-9898-d4c1520dd2ba",
            "assigner": {
              "identifier": {
                "system": "https://fhir.nhs.uk/Id/ods-organization-code",
                "value": "F83004"
              }
            }
          }
        },
        "effectiveDateTime": "2024-11-08T15:51:00+00:00",
        "issued": "2024-11-08T15:51:00.000+00:00",
        "performer": [
          {
            "reference": "urn:uuid:a716058c-f9d5-4537-b1e7-d021bd2185a3",
            "type": "Practitioner",
            "identifier": {
              "system": "https://fhir.hl7.org.uk/Id/professional-code",
              "value": "25825845"
            },
            "display": "Dr HealthOnline Test"
          }
        ]
      }
    },
    {
      "fullUrl": "urn:uuid:d47702bf-a108-41a2-8f1f-0e34f718a654",
      "resource": {
        "resourceType": "Observation",
        "id": "d47702bf-a108-41a2-8f1f-0e34f718a654",
        "identifier": [
          {
            "use": "secondary",
            "system": "https://emis.com/Id/Event/DBID",
            "value": "374",
            "assigner": {
              "identifier": {
                "system": "https://fhir.nhs.uk/Id/ods-organization-code",
                "value": "F83004"
              }
            }
          },
          {
            "use": "usual",
            "system": "https://emis.com/Id/Event/GUID",
            "value": "d47702bf-a108-41a2-8f1f-0e34f718a654",
            "assigner": {
              "identifier": {
                "system": "https://fhir.nhs.uk/Id/ods-organization-code",
                "value": "F83004"
              }
            }
          }
        ],
        "status": "unknown",
        "category": [
          {
            "coding": [
              {
                "system": "http://terminology.hl7.org/CodeSystem/observation-category",
                "code": "exam"
              }
            ]
          }
        ],
        "code": {
          "coding": [
            {
              "system": "http://snomed.info/sct",
              "code": "716821000000100",
              "display": "Excepted from hypertension quality indicators - patient unsuitable"
            }
          ],
          "text": "Excepted from hypertension quality indicators - patient unsuitable"
        },
        "subject": {
          "reference": "urn:uuid:8f6afa2e-c142-4f06-82ec-290c3f6b6e6d",
          "type": "Patient"
        },
        "encounter": {
          "reference": "urn:uuid:ab2539ee-fd55-4abc-9898-d4c1520dd2ba",
          "identifier": {
            "system": "https://emis.com/Id/Consultation/GUID",
            "value": "ab2539ee-fd55-4abc-9898-d4c1520dd2ba",
            "assigner": {
              "identifier": {
                "system": "https://fhir.nhs.uk/Id/ods-organization-code",
                "value": "F83004"
              }
            }
          }
        },
        "effectiveDateTime": "2024-11-08T15:51:00+00:00",
        "issued": "2024-11-08T15:51:00.000+00:00",
        "performer": [
          {
            "reference": "urn:uuid:a716058c-f9d5-4537-b1e7-d021bd2185a3",
            "type": "Practitioner",
            "identifier": {
              "system": "https://fhir.hl7.org.uk/Id/professional-code",
              "value": "25825845"
            },
            "display": "Dr HealthOnline Test"
          }
        ]
      }
    },
    {
      "fullUrl": "urn:uuid:77828dc0-c740-4d22-8543-be5e44036c79",
      "resource": {
        "resourceType": "Observation",
        "id": "77828dc0-c740-4d22-8543-be5e44036c79",
        "identifier": [
          {
            "use": "secondary",
            "system": "https://emis.com/Id/Event/DBID",
            "value": "375",
            "assigner": {
              "identifier": {
                "system": "https://fhir.nhs.uk/Id/ods-organization-code",
                "value": "F83004"
              }
            }
          },
          {
            "use": "usual",
            "system": "https://emis.com/Id/Event/GUID",
            "value": "77828dc0-c740-4d22-8543-be5e44036c79",
            "assigner": {
              "identifier": {
                "system": "https://fhir.nhs.uk/Id/ods-organization-code",
                "value": "F83004"
              }
            }
          }
        ],
        "status": "unknown",
        "category": [
          {
            "coding": [
              {
                "system": "http://terminology.hl7.org/CodeSystem/observation-category",
                "code": "exam"
              }
            ]
          }
        ],
        "code": {
          "coding": [
            {
              "system": "http://snomed.info/sct",
              "code": "11816003",
              "display": "Dietary advice"
            }
          ],
          "text": "Dietary advice"
        },
        "subject": {
          "reference": "urn:uuid:8f6afa2e-c142-4f06-82ec-290c3f6b6e6d",
          "type": "Patient"
        },
        "encounter": {
          "reference": "urn:uuid:ab2539ee-fd55-4abc-9898-d4c1520dd2ba",
          "identifier": {
            "system": "https://emis.com/Id/Consultation/GUID",
            "value": "ab2539ee-fd55-4abc-9898-d4c1520dd2ba",
            "assigner": {
              "identifier": {
                "system": "https://fhir.nhs.uk/Id/ods-organization-code",
                "value": "F83004"
              }
            }
          }
        },
        "effectiveDateTime": "2024-11-08T15:51:00+00:00",
        "issued": "2024-11-08T15:51:00.000+00:00",
        "performer": [
          {
            "reference": "urn:uuid:a716058c-f9d5-4537-b1e7-d021bd2185a3",
            "type": "Practitioner",
            "identifier": {
              "system": "https://fhir.hl7.org.uk/Id/professional-code",
              "value": "25825845"
            },
            "display": "Dr HealthOnline Test"
          }
        ]
      }
    },
    {
      "fullUrl": "urn:uuid:22ba9307-b02e-4424-9856-3c424b2cdfe9",
      "resource": {
        "resourceType": "Observation",
        "id": "22ba9307-b02e-4424-9856-3c424b2cdfe9",
        "identifier": [
          {
            "use": "secondary",
            "system": "https://emis.com/Id/Event/DBID",
            "value": "376",
            "assigner": {
              "identifier": {
                "system": "https://fhir.nhs.uk/Id/ods-organization-code",
                "value": "F83004"
              }
            }
          },
          {
            "use": "usual",
            "system": "https://emis.com/Id/Event/GUID",
            "value": "22ba9307-b02e-4424-9856-3c424b2cdfe9",
            "assigner": {
              "identifier": {
                "system": "https://fhir.nhs.uk/Id/ods-organization-code",
                "value": "F83004"
              }
            }
          }
        ],
        "status": "unknown",
        "category": [
          {
            "coding": [
              {
                "system": "http://terminology.hl7.org/CodeSystem/observation-category",
                "code": "exam"
              }
            ]
          }
        ],
        "code": {
          "coding": [
            {
              "system": "http://snomed.info/sct",
              "code": "164846002",
              "display": "ECG requested"
            }
          ],
          "text": "ECG requested"
        },
        "subject": {
          "reference": "urn:uuid:8f6afa2e-c142-4f06-82ec-290c3f6b6e6d",
          "type": "Patient"
        },
        "encounter": {
          "reference": "urn:uuid:ab2539ee-fd55-4abc-9898-d4c1520dd2ba",
          "identifier": {
            "system": "https://emis.com/Id/Consultation/GUID",
            "value": "ab2539ee-fd55-4abc-9898-d4c1520dd2ba",
            "assigner": {
              "identifier": {
                "system": "https://fhir.nhs.uk/Id/ods-organization-code",
                "value": "F83004"
              }
            }
          }
        },
        "effectiveDateTime": "2024-11-08T15:51:00+00:00",
        "issued": "2024-11-08T15:51:00.000+00:00",
        "performer": [
          {
            "reference": "urn:uuid:a716058c-f9d5-4537-b1e7-d021bd2185a3",
            "type": "Practitioner",
            "identifier": {
              "system": "https://fhir.hl7.org.uk/Id/professional-code",
              "value": "25825845"
            },
            "display": "Dr HealthOnline Test"
          }
        ]
      }
    },
    {
      "fullUrl": "urn:uuid:9955d4bb-51fb-41c3-9e24-182eb108dfe7",
      "resource": {
        "resourceType": "Observation",
        "id": "9955d4bb-51fb-41c3-9e24-182eb108dfe7",
        "identifier": [
          {
            "use": "secondary",
            "system": "https://emis.com/Id/Event/DBID",
            "value": "377",
            "assigner": {
              "identifier": {
                "system": "https://fhir.nhs.uk/Id/ods-organization-code",
                "value": "F83004"
              }
            }
          },
          {
            "use": "usual",
            "system": "https://emis.com/Id/Event/GUID",
            "value": "9955d4bb-51fb-41c3-9e24-182eb108dfe7",
            "assigner": {
              "identifier": {
                "system": "https://fhir.nhs.uk/Id/ods-organization-code",
                "value": "F83004"
              }
            }
          }
        ],
        "status": "unknown",
        "category": [
          {
            "coding": [
              {
                "system": "http://terminology.hl7.org/CodeSystem/observation-category",
                "code": "laboratory"
              }
            ]
          }
        ],
        "code": {
          "coding": [
            {
              "system": "http://snomed.info/sct",
              "code": "1005671000000105",
              "display": "Serum cholesterol level"
            }
          ],
          "text": "Serum cholesterol level, 123 mmol/L"
        },
        "subject": {
          "reference": "urn:uuid:8f6afa2e-c142-4f06-82ec-290c3f6b6e6d",
          "type": "Patient"
        },
        "encounter": {
          "reference": "urn:uuid:ab2539ee-fd55-4abc-9898-d4c1520dd2ba",
          "identifier": {
            "system": "https://emis.com/Id/Consultation/GUID",
            "value": "ab2539ee-fd55-4abc-9898-d4c1520dd2ba",
            "assigner": {
              "identifier": {
                "system": "https://fhir.nhs.uk/Id/ods-organization-code",
                "value": "F83004"
              }
            }
          }
        },
        "effectiveDateTime": "2024-11-08T15:51:00+00:00",
        "issued": "2024-11-08T15:51:00.000+00:00",
        "performer": [
          {
            "reference": "urn:uuid:a716058c-f9d5-4537-b1e7-d021bd2185a3",
            "type": "Practitioner",
            "identifier": {
              "system": "https://fhir.hl7.org.uk/Id/professional-code",
              "value": "25825845"
            },
            "display": "Dr HealthOnline Test"
          }
        ],
        "valueQuantity": {
          "value": 123,
          "unit": "mmol/L",
          "system": "http://unitsofmeasure.org",
          "code": "mmol/L"
        }
      }
    },
    {
      "fullUrl": "urn:uuid:44fa1523-ffef-4d71-ba05-4a38f629b02e",
      "resource": {
        "resourceType": "Observation",
        "id": "44fa1523-ffef-4d71-ba05-4a38f629b02e",
        "identifier": [
          {
            "use": "secondary",
            "system": "https://emis.com/Id/Event/DBID",
            "value": "378",
            "assigner": {
              "identifier": {
                "system": "https://fhir.nhs.uk/Id/ods-organization-code",
                "value": "F83004"
              }
            }
          },
          {
            "use": "usual",
            "system": "https://emis.com/Id/Event/GUID",
            "value": "44fa1523-ffef-4d71-ba05-4a38f629b02e",
            "assigner": {
              "identifier": {
                "system": "https://fhir.nhs.uk/Id/ods-organization-code",
                "value": "F83004"
              }
            }
          }
        ],
        "status": "unknown",
        "category": [
          {
            "coding": [
              {
                "system": "http://terminology.hl7.org/CodeSystem/observation-category",
                "code": "laboratory"
              }
            ]
          }
        ],
        "code": {
          "coding": [
            {
              "system": "http://snomed.info/sct",
              "code": "1000731000000107",
              "display": "Serum creatinine level"
            }
          ],
          "text": "Serum creatinine level, 123 umol/L"
        },
        "subject": {
          "reference": "urn:uuid:8f6afa2e-c142-4f06-82ec-290c3f6b6e6d",
          "type": "Patient"
        },
        "encounter": {
          "reference": "urn:uuid:ab2539ee-fd55-4abc-9898-d4c1520dd2ba",
          "identifier": {
            "system": "https://emis.com/Id/Consultation/GUID",
            "value": "ab2539ee-fd55-4abc-9898-d4c1520dd2ba",
            "assigner": {
              "identifier": {
                "system": "https://fhir.nhs.uk/Id/ods-organization-code",
                "value": "F83004"
              }
            }
          }
        },
        "effectiveDateTime": "2024-11-08T15:51:00+00:00",
        "issued": "2024-11-08T15:51:00.000+00:00",
        "performer": [
          {
            "reference": "urn:uuid:a716058c-f9d5-4537-b1e7-d021bd2185a3",
            "type": "Practitioner",
            "identifier": {
              "system": "https://fhir.hl7.org.uk/Id/professional-code",
              "value": "25825845"
            },
            "display": "Dr HealthOnline Test"
          }
        ],
        "valueQuantity": {
          "value": 123,
          "unit": "umol/L",
          "system": "http://unitsofmeasure.org",
          "code": "umol/L"
        }
      }
    },
    {
      "fullUrl": "urn:uuid:a716058c-f9d5-4537-b1e7-d021bd2185a3",
      "resource": {
        "resourceType": "Practitioner",
        "id": "a716058c-f9d5-4537-b1e7-d021bd2185a3",
        "extension": [
          {
            "url": "http://fhir.virtuallyhealthcare.co.uk/Role",
            "extension": [
              {
                "url": "url",
                "valueReference": {
                  "reference": "Location/4882"
                }
              },
              {
                "url": "role",
                "valueInteger": 10
              }
            ]
          }
        ],
        "identifier": [
          {
            "use": "old",
            "type": {
              "coding": [
                {
                  "system": "http://terminology.hl7.org/CodeSystem/v2-0203",
                  "code": "PN"
                }
              ]
            },
            "system": "https://emis.com/Id/Practitioner/DBID",
            "value": "4602",
            "assigner": {
              "identifier": {
                "system": "https://fhir.nhs.uk/Id/ods-organization-code",
                "value": "F83004"
              }
            }
          },
          {
            "use": "old",
            "system": "https://emis.com/Id/Practitioner/REFID",
            "value": "4602"
          },
          {
            "use": "usual",
            "type": {
              "coding": [
                {
                  "system": "http://terminology.hl7.org/CodeSystem/v2-0203",
                  "code": "ESN"
                }
              ]
            },
            "system": "https://emis.com/Id/Practitioner/GUID",
            "value": "a716058c-f9d5-4537-b1e7-d021bd2185a3"
          },
          {
            "system": "https://fhir.hl7.org.uk/Id/professional-code",
            "value": "25825845"
          },
          {
            "use": "secondary",
            "system": "https://fhir.nhs.uk/Id/gmc-reference-number",
            "value": "2582587"
          }
        ],
        "active": true,
        "name": [
          {
            "family": "Test",
            "given": [
              "HealthOnline"
            ],
            "prefix": [
              "Dr"
            ]
          }
        ]
      }
    },
    {
      "fullUrl": "urn:uuid:ab2539ee-fd55-4abc-9898-d4c1520dd2ba",
      "resource": {
        "resourceType": "Encounter",
        "id": "ab2539ee-fd55-4abc-9898-d4c1520dd2ba",
        "status": "finished",
        "class": {
          "system": "http://terminology.hl7.org/CodeSystem/v3-ActCode",
          "code": "AMB"
        },
        "type": [
          {
            "coding": [
              {
                "system": "https://emis.com/Id/LocationType/GUID",
                "code": "357efd4f-7912-de6e-13b8-d3faced28522"
              }
            ]
          }
        ],
        "subject": {
          "reference": "urn:uuid:8f6afa2e-c142-4f06-82ec-290c3f6b6e6d",
          "type": "Patient"
        },
        "participant": [
          {
            "individual": {
              "reference": "urn:uuid:a716058c-f9d5-4537-b1e7-d021bd2185a3",
              "type": "Practitioner",
              "identifier": {
                "system": "https://fhir.hl7.org.uk/Id/professional-code",
                "value": "25825845"
              },
              "display": "Dr HealthOnline Test"
            }
          }
        ],
        "location": [
          {
            "location": {
              "identifier": {
                "system": "https://emis.com/Id/Location/GUID",
                "value": "37088c97-82fc-4b3e-bdbc-28f2c03b6cb8"
              },
              "display": "Main Building"
            }
          }
        ]
      }
    }
  ]
}
