{
  "resourceType": "Bundle",
  "id": "ab2539ee-fd55-4abc-9898-d4c1520dd2ba",
  "meta": {
    "profile" : [
      "https://fhir.virtually.healthcare/StructureDefinition/Bundle-Document"
    ]
  },
  "identifier": {
    "use": "usual",
    "system": "https://tools.ietf.org/html/rfc4122",
    "value": "b95ae600-4d18-4d62-9465-e04592f9bfa9",
    "assigner": {
      "identifier": {
        "system": "https://fhir.nhs.uk/Id/ods-organization-code",
        "value": "F83004"
      }
    }
  },
  "type": "document",
  "timestamp": "2024-11-08T15:51:00.000+00:00",
  "entry": [
    {
      "fullUrl": "urn:uuid:b95ae600-4d18-4d62-9465-e04592f9bfa9",
      "resource": {
        "resourceType": "Composition",
        "id": "ab2539ee-fd55-4abc-9898-d4c1520dd2ba",
        "identifier": {
          "use": "usual",
          "system": "https://tools.ietf.org/html/rfc4122",
          "value": "b95ae600-4d18-4d62-9465-e04592f9bfa9",
          "assigner": {
            "identifier": {
              "system": "https://fhir.nhs.uk/Id/ods-organization-code",
              "value": "F83004"
            }
          }
        },
        "status": "final",
        "type": {
          "coding": [
            {
              "system": "http://snomed.info/sct",
              "code": "823651000000106",
              "display": "Clinical note"
            }
          ]
        },
        "subject": {
          "reference": "urn:uuid:b7951809-0acb-4dfa-ba90-3032869e0685",
          "type": "Patient"
        },
        "encounter": {
          "reference": "urn:uuid:ab2539ee-fd55-4abc-9898-d4c1520dd2ba",
          "identifier": {
            "system": "https://emis.com/Id/Consultation/GUID",
            "value": "ab2539ee-fd55-4abc-9898-d4c1520dd2ba",
            "assigner": {
              "identifier": {
                "system": "https://fhir.nhs.uk/Id/ods-organization-code",
                "value": "F83004"
              }
            }
          }
        },
        "date": "2024-11-08T15:51:00+00:00",
        "author": [
          {
            "reference": "urn:uuid:a716058c-f9d5-4537-b1e7-d021bd2185a3",
            "type": "Practitioner",
            "identifier": {
              "system": "https://fhir.hl7.org.uk/Id/professional-code",
              "value": "25825845"
            },
            "display": "Dr HealthOnline Test"
          }
        ],
        "title": "Clinical note",
        "section": [
          {
            "title": "Result",
            "code": {
              "coding": [
                {
                  "system": "http://loinc.org",
                  "code": "30954-2",
                  "display": "Relevant diagnostic tests/laboratory data Narrative"
                }
              ],
              "text": "Result"
            },
            "text": {
              "status": "generated",
              "div": "<div xmlns=\"http://www.w3.org/1999/xhtml\"><p>Serum TSH (thyroid stimulating hormone) level, 12 mU/L <i/></p></div>"
            },
            "entry": [
              {
                "reference": "urn:uuid:5fa04e13-3d6e-4ccd-99df-3d3ecdcb264b",
                "type": "Observation",
                "display": "Serum TSH (thyroid stimulating hormone) level, 12 mU/L"
              }
            ]
          },
          {
            "title": "Examination",
            "code": {
              "coding": [
                {
                  "system": "https://emis.com/Id/SectionHeader",
                  "code": "Examination",
                  "display": "Examination"
                },
                {
                  "system": "http://snomed.info/sct",
                  "code": "715851000000102",
                  "display": "Examination findings"
                }
              ],
              "text": "Examination"
            },
            "text": {
              "status": "generated",
              "div": "<div xmlns=\"http://www.w3.org/1999/xhtml\"><p>Body weight, 79 kg <i/></p><p>Standing height, 179 cm <i/></p><p>Body mass index, 24.66 kg/m2 <i/></p></div>"
            },
            "entry": [
              {
                "reference": "urn:uuid:d3adf58c-bd92-4d45-b598-d76e2210a4a5",
                "type": "Observation",
                "display": "Body weight, 79 kg"
              },
              {
                "reference": "urn:uuid:f859d2b0-a68f-4ff5-aa5d-44ebeff18505",
                "type": "Observation",
                "display": "Standing height, 179 cm"
              },
              {
                "reference": "urn:uuid:9f8e11e9-381e-434c-b9da-a309ee669f83",
                "type": "Observation",
                "display": "Body mass index, 24.66 kg/m2"
              }
            ]
          },
          {
            "title": "Procedure",
            "code": {
              "coding": [
                {
                  "system": "https://emis.com/Id/SectionHeader",
                  "code": "Procedure",
                  "display": "Procedure"
                }
              ],
              "text": "Procedure"
            },
            "text": {
              "status": "generated",
              "div": "<div xmlns=\"http://www.w3.org/1999/xhtml\"><p>Physical therapy procedure <i/></p></div>"
            },
            "entry": [
              {
                "reference": "urn:uuid:d7c55283-f991-4854-85f5-e6def3cc82be",
                "type": "Observation",
                "display": "Physical therapy procedure"
              }
            ]
          },
          {
            "title": "Referral",
            "code": {
              "coding": [
                {
                  "system": "https://emis.com/Id/SectionHeader",
                  "code": "Referral",
                  "display": "Referral"
                }
              ],
              "text": "Referral"
            },
            "text": {
              "status": "generated",
              "div": "<div xmlns=\"http://www.w3.org/1999/xhtml\"><p>Refer for thyroid test <i/></p></div>"
            },
            "entry": [
              {
                "reference": "urn:uuid:71f58a26-5daa-491d-b85f-cf60fbe90236",
                "type": "ServiceRequest"
              }
            ]
          },
          {
            "title": "Document",
            "code": {
              "coding": [
                {
                  "system": "https://emis.com/Id/SectionHeader",
                  "code": "Document",
                  "display": "Document"
                }
              ],
              "text": "Document"
            },
            "text": {
              "status": "generated",
              "div": "<div xmlns=\"http://www.w3.org/1999/xhtml\"><p>Referral Letter (08-Nov-2024) <i/></p><p>Discharge summary report <i/></p></div>"
            },
            "entry": [
              {
                "reference": "urn:uuid:900566b1-a93d-4cb1-998a-a5141e2127bf",
                "type": "DocumentReference"
              },
              {
                "reference": "urn:uuid:4a838ced-3568-4839-b247-316fabef3163",
                "type": "DocumentReference"
              }
            ]
          },
          {
            "title": "Allergy",
            "code": {
              "coding": [
                {
                  "system": "https://emis.com/Id/SectionHeader",
                  "code": "Allergy",
                  "display": "Allergy"
                }
              ],
              "text": "Allergy"
            },
            "text": {
              "status": "generated",
              "div": "<div xmlns=\"http://www.w3.org/1999/xhtml\"><p>Adverse reaction to drug <i/></p><p>Allergy to drug <i/></p><p>Allergy to aspirin <i/></p></div>"
            },
            "entry": [
              {
                "reference": "urn:uuid:b795e488-21eb-49cb-9360-d4cb7a02dc6e",
                "type": "AllergyIntolerance",
                "display": "Adverse reaction to drug"
              },
              {
                "reference": "urn:uuid:6a18b33e-23f7-4fab-9899-232e494267c7",
                "type": "AllergyIntolerance",
                "display": "Allergy to drug"
              },
              {
                "reference": "urn:uuid:6e1a1654-a02b-4638-bad1-c64b65fd09f3",
                "type": "AllergyIntolerance",
                "display": "Allergy to aspirin"
              }
            ]
          },
          {
            "title": "History",
            "code": {
              "coding": [
                {
                  "system": "https://emis.com/Id/SectionHeader",
                  "code": "History",
                  "display": "History"
                },
                {
                  "system": "http://snomed.info/sct",
                  "code": "717121000000105",
                  "display": "History"
                }
              ],
              "text": "History"
            },
            "text": {
              "status": "generated",
              "div": "<div xmlns=\"http://www.w3.org/1999/xhtml\"><p>Family history of alcohol misuse (Aunt) <i/></p></div>"
            },
            "entry": [
              {
                "reference": "urn:uuid:552182f3-208a-479f-ad28-bca5a82e312e",
                "type": "Observation",
                "display": "Family history of alcohol misuse (Aunt)"
              }
            ]
          },
          {
            "title": "Test Request",
            "code": {
              "coding": [
                {
                  "system": "https://emis.com/Id/SectionHeader",
                  "code": "Test Request",
                  "display": "Test Request"
                }
              ],
              "text": "Test Request"
            },
            "text": {
              "status": "generated",
              "div": "<div xmlns=\"http://www.w3.org/1999/xhtml\"><p>Venous blood specimen <i/></p></div>"
            },
            "entry": [
              {
                "reference": "urn:uuid:3fe68913-6016-46b1-a20a-fb97fd125ea1",
                "type": "Observation",
                "display": "Venous blood specimen"
              }
            ]
          },
          {
            "title": "Comment",
            "code": {
              "coding": [
                {
                  "system": "http://loinc.org",
                  "code": "48767-8",
                  "display": "Annotation comment [Interpretation] Narrative"
                }
              ],
              "text": "Comment"
            },
            "text": {
              "status": "generated"
            }
          },
          {
            "title": "Follow up",
            "code": {
              "coding": [
                {
                  "system": "https://emis.com/Id/SectionHeader",
                  "code": "Follow up",
                  "display": "Follow up"
                }
              ],
              "text": "Follow up"
            },
            "text": {
              "status": "generated",
              "div": "<div xmlns=\"http://www.w3.org/1999/xhtml\"><p>Medication review 08/12/2024</p></div>"
            },
            "entry": [
              {
                "reference": "urn:uuid:70efbefb-9985-4579-90ed-fc1b36ef2905",
                "type": "Task",
                "display": "Medication review 08/12/2024"
              }
            ]
          },
          {
            "title": "Family History",
            "code": {
              "coding": [
                {
                  "system": "https://emis.com/Id/SectionHeader",
                  "code": "Family History",
                  "display": "Family History"
                }
              ],
              "text": "Family History"
            },
            "text": {
              "status": "generated",
              "div": "<div xmlns=\"http://www.w3.org/1999/xhtml\"><p>No family history diabetes <i/></p><p>Family history of breast cancer (Uncle) <i/></p></div>"
            },
            "entry": [
              {
                "reference": "urn:uuid:603260f4-3d90-4418-925b-4766f96f8575",
                "type": "Observation",
                "display": "No family history diabetes"
              },
              {
                "reference": "urn:uuid:0242b574-fa7b-4614-9e7d-2a5736b58eda",
                "type": "Observation",
                "display": "Family history of breast cancer (Uncle)"
              }
            ]
          },
          {
            "title": "Problem",
            "code": {
              "coding": [
                {
                  "system": "http://loinc.org",
                  "code": "11450-4",
                  "display": "Problem list - Reported"
                }
              ],
              "text": "Problem"
            },
            "text": {
              "status": "generated",
              "div": "<div xmlns=\"http://www.w3.org/1999/xhtml\"><p>Current non-smoker <i/></p><p>Essential hypertension <i/></p></div>"
            },
            "entry": [
              {
                "reference": "urn:uuid:9c58bbb7-7211-48fc-8368-1b88d04fc6cf",
                "type": "Observation",
                "display": "Current non-smoker"
              },
              {
                "reference": "urn:uuid:27201baa-56c6-40b2-b1b5-9dc709b50f89",
                "type": "Observation",
                "display": "Essential hypertension"
              }
            ]
          },
          {
            "title": "Assessment",
            "code": {
              "coding": [
                {
                  "system": "https://emis.com/Id/SectionHeader",
                  "code": "Assessment",
                  "display": "Assessment"
                }
              ],
              "text": "Assessment"
            },
            "text": {
              "status": "generated",
              "div": "<div xmlns=\"http://www.w3.org/1999/xhtml\"><p>Hypertension monitoring <i/></p><p>Hypertension six month review <i/></p><p>Medication review done <i/></p></div>"
            },
            "entry": [
              {
                "reference": "urn:uuid:0abe00a6-7142-4cac-8478-042516975bf3",
                "type": "Observation",
                "display": "Hypertension monitoring"
              },
              {
                "reference": "urn:uuid:388867f2-2e40-4b13-91e5-7bbf6b309a5b",
                "type": "Observation",
                "display": "Hypertension six month review"
              },
              {
                "reference": "urn:uuid:b26a203d-51d9-4dfe-a6f1-143dec6a7d28",
                "type": "Observation",
                "display": "Medication review done"
              }
            ]
          },
          {
            "title": "Additional",
            "code": {
              "coding": [
                {
                  "system": "https://emis.com/Id/SectionHeader",
                  "code": "Additional",
                  "display": "Additional"
                }
              ],
              "text": "Additional"
            },
            "text": {
              "status": "generated",
              "div": "<div xmlns=\"http://www.w3.org/1999/xhtml\"><p>Hypertension resolved <i/></p><p>Excepted from hypertension quality indicators - patient unsuitable <i/></p><p>British or mixed British - ethnic category 2001 census <i/></p><p>Dietary advice <i/></p><p>Education about alcohol consumption <i/></p><p>ECG requested <i/></p></div>"
            },
            "entry": [
              {
                "reference": "urn:uuid:470190a2-309a-4f28-a107-418bfc22ba77",
                "type": "Observation",
                "display": "Hypertension resolved"
              },
              {
                "reference": "urn:uuid:d47702bf-a108-41a2-8f1f-0e34f718a654",
                "type": "Observation",
                "display": "Excepted from hypertension quality indicators - patient unsuitable"
              },
              {
                "reference": "urn:uuid:f47bd9a2-5de0-4598-be29-d45b242c18b7",
                "type": "Observation",
                "display": "British or mixed British - ethnic category 2001 census"
              },
              {
                "reference": "urn:uuid:77828dc0-c740-4d22-8543-be5e44036c79",
                "type": "Observation",
                "display": "Dietary advice"
              },
              {
                "reference": "urn:uuid:5ea579ff-88c8-4265-a539-c15d0e0ba185",
                "type": "Observation",
                "display": "Education about alcohol consumption"
              },
              {
                "reference": "urn:uuid:22ba9307-b02e-4424-9856-3c424b2cdfe9",
                "type": "Observation",
                "display": "ECG requested"
              }
            ]
          },
          {
            "title": "Social",
            "code": {
              "coding": [
                {
                  "system": "http://loinc.org",
                  "code": "29762-2",
                  "display": "Social history Narrative"
                }
              ],
              "text": "Social"
            },
            "text": {
              "status": "generated",
              "div": "<div xmlns=\"http://www.w3.org/1999/xhtml\"><p>Alcohol consumption, 0 U/week <i/></p></div>"
            },
            "entry": [
              {
                "reference": "urn:uuid:01247827-f6d8-4766-bf19-97d0cb029d1a",
                "type": "Observation",
                "display": "Alcohol consumption, 0 U/week"
              }
            ]
          },
          {
            "title": "Result",
            "code": {
              "coding": [
                {
                  "system": "http://loinc.org",
                  "code": "30954-2",
                  "display": "Relevant diagnostic tests/laboratory data Narrative"
                }
              ],
              "text": "Result"
            },
            "text": {
              "status": "generated",
              "div": "<div xmlns=\"http://www.w3.org/1999/xhtml\"><p>Serum cholesterol level, 123 mmol/L <i/></p><p>Serum high density lipoprotein cholesterol level, 234 mmol/L <i/></p><p>Serum creatinine level, 123 umol/L <i/></p></div>"
            },
            "entry": [
              {
                "reference": "urn:uuid:9955d4bb-51fb-41c3-9e24-182eb108dfe7",
                "type": "Observation",
                "display": "Serum cholesterol level, 123 mmol/L"
              },
              {
                "reference": "urn:uuid:02bb3059-6ff1-48af-a4ec-27afb78ef59d",
                "type": "Observation",
                "display": "Serum high density lipoprotein cholesterol level, 234 mmol/L"
              },
              {
                "reference": "urn:uuid:44fa1523-ffef-4d71-ba05-4a38f629b02e",
                "type": "Observation",
                "display": "Serum creatinine level, 123 umol/L"
              }
            ]
          },
          {
            "title": "Follow up",
            "code": {
              "coding": [
                {
                  "system": "https://emis.com/Id/SectionHeader",
                  "code": "Follow up",
                  "display": "Follow up"
                }
              ],
              "text": "Follow up"
            },
            "text": {
              "status": "generated",
              "div": "<div xmlns=\"http://www.w3.org/1999/xhtml\"><p>Hypertension monitoring 08/11/2024</p></div>"
            },
            "entry": [
              {
                "reference": "urn:uuid:b8657275-8d33-4b78-9f93-8977ffb319df",
                "type": "Task",
                "display": "Hypertension monitoring 08/11/2024"
              }
            ]
          },
          {
            "title": "Additional",
            "code": {
              "coding": [
                {
                  "system": "https://emis.com/Id/SectionHeader",
                  "code": "Additional",
                  "display": "Additional"
                }
              ],
              "text": "Additional"
            },
            "text": {
              "status": "generated",
              "div": "<div xmlns=\"http://www.w3.org/1999/xhtml\"><p>Test request : Full Blood Count</p><p>Test request : Plasma Viscosity</p><p>Test request : Antenatal</p><p>Systolic arterial pressure, 117 mmHg</p><p>Diastolic arterial pressure, 75 mmHg</p></div>"
            },
            "entry": [
              {
                "reference": "urn:uuid:39e7a63a-4f09-4ad9-a2a0-66ad94a77851"
              },
              {
                "reference": "urn:uuid:2715a9e3-7c06-4925-ae4a-0b11e5b8e987"
              },
              {
                "reference": "urn:uuid:c59dee86-4d6e-40e0-ad1e-e7959075e753"
              },
              {
                "reference": "urn:uuid:107b410c-384c-4c0f-b5f5-def84619d40f"
              },
              {
                "reference": "urn:uuid:82c1918b-6466-47b7-b940-a5e5f4d84c8b"
              }
            ]
          }
        ]
      }
    },
    {
      "fullUrl": "urn:uuid:b7951809-0acb-4dfa-ba90-3032869e0685",
      "resource": {
        "resourceType": "Patient",
        "id": "b7951809-0acb-4dfa-ba90-3032869e0685",
        "identifier": [
          {
            "use": "usual",
            "type": {
              "coding": [
                {
                  "system": "http://terminology.hl7.org/CodeSystem/v2-0203",
                  "code": "MR"
                }
              ]
            },
            "system": "https://emis.com/Id/Patient/DBID",
            "value": "3",
            "assigner": {
              "identifier": {
                "system": "https://fhir.nhs.uk/Id/ods-organization-code",
                "value": "F83004"
              }
            }
          },
          {
            "use": "official",
            "type": {
              "coding": [
                {
                  "system": "http://terminology.hl7.org/CodeSystem/v2-0203",
                  "code": "NH"
                }
              ]
            },
            "system": "https://fhir.nhs.uk/Id/nhs-number",
            "value": "5393501883"
          }
        ],
        "active": true,
        "name": [
          {
            "family": "O'Donnell",
            "given": [
              "Daniel"
            ],
            "prefix": [
              "Mr"
            ]
          }
        ],
        "gender": "male",
        "birthDate": "1947-12-30",
        "address": [
          {
            "line": [
              "42 The Avenue",
              "Crimbles"
            ],
            "city": "East Hardwick",
            "postalCode": "WF16"
          }
        ],
        "generalPractitioner": [
          {
            "identifier": {
              "system": "https://fhir.nhs.uk/Id/ods-organization-code",
              "value": "F83004"
            }
          }
        ]
      }
    },
    {
      "fullUrl": "urn:uuid:5fa04e13-3d6e-4ccd-99df-3d3ecdcb264b",
      "resource": {
        "resourceType": "Observation",
        "id": "5fa04e13-3d6e-4ccd-99df-3d3ecdcb264b",
        "identifier": [
          {
            "use": "secondary",
            "system": "https://emis.com/Id/Event/DBID",
            "value": "3263",
            "assigner": {
              "identifier": {
                "system": "https://fhir.nhs.uk/Id/ods-organization-code",
                "value": "F83004"
              }
            }
          },
          {
            "use": "usual",
            "system": "https://emis.com/Id/Event/GUID",
            "value": "5fa04e13-3d6e-4ccd-99df-3d3ecdcb264b",
            "assigner": {
              "identifier": {
                "system": "https://fhir.nhs.uk/Id/ods-organization-code",
                "value": "F83004"
              }
            }
          }
        ],
        "status": "unknown",
        "category": [
          {
            "coding": [
              {
                "system": "http://terminology.hl7.org/CodeSystem/observation-category",
                "code": "laboratory"
              }
            ]
          }
        ],
        "code": {
          "coding": [
            {
              "system": "http://read.info/readv2",
              "code": "442W.",
              "display": "Serum TSH (thyroid stimulating hormone) level"
            },
            {
              "system": "http://snomed.info/sct",
              "code": "1022791000000101",
              "display": "Serum TSH (thyroid stimulating hormone) level"
            }
          ],
          "text": "Serum TSH (thyroid stimulating hormone) level, 12 mU/L"
        },
        "subject": {
          "reference": "urn:uuid:b7951809-0acb-4dfa-ba90-3032869e0685",
          "type": "Patient"
        },
        "encounter": {
          "reference": "urn:uuid:ab2539ee-fd55-4abc-9898-d4c1520dd2ba",
          "identifier": {
            "system": "https://emis.com/Id/Consultation/GUID",
            "value": "ab2539ee-fd55-4abc-9898-d4c1520dd2ba",
            "assigner": {
              "identifier": {
                "system": "https://fhir.nhs.uk/Id/ods-organization-code",
                "value": "F83004"
              }
            }
          }
        },
        "effectiveDateTime": "2024-11-08T15:51:00+00:00",
        "issued": "2024-11-08T15:51:00.000+00:00",
        "performer": [
          {
            "reference": "urn:uuid:a716058c-f9d5-4537-b1e7-d021bd2185a3",
            "type": "Practitioner",
            "identifier": {
              "system": "https://fhir.hl7.org.uk/Id/professional-code",
              "value": "25825845"
            },
            "display": "Dr HealthOnline Test"
          }
        ],
        "valueQuantity": {
          "value": 12,
          "unit": "mU/L",
          "system": "http://unitsofmeasure.org",
          "code": "mU/L"
        }
      }
    },
    {
      "fullUrl": "urn:uuid:d3adf58c-bd92-4d45-b598-d76e2210a4a5",
      "resource": {
        "resourceType": "Observation",
        "id": "d3adf58c-bd92-4d45-b598-d76e2210a4a5",
        "identifier": [
          {
            "use": "secondary",
            "system": "https://emis.com/Id/Event/DBID",
            "value": "3264",
            "assigner": {
              "identifier": {
                "system": "https://fhir.nhs.uk/Id/ods-organization-code",
                "value": "F83004"
              }
            }
          },
          {
            "use": "usual",
            "system": "https://emis.com/Id/Event/GUID",
            "value": "d3adf58c-bd92-4d45-b598-d76e2210a4a5",
            "assigner": {
              "identifier": {
                "system": "https://fhir.nhs.uk/Id/ods-organization-code",
                "value": "F83004"
              }
            }
          }
        ],
        "status": "unknown",
        "category": [
          {
            "coding": [
              {
                "system": "http://terminology.hl7.org/CodeSystem/observation-category",
                "code": "vital-signs"
              }
            ]
          }
        ],
        "code": {
          "coding": [
            {
              "system": "http://read.info/readv2",
              "code": "22A..",
              "display": "Body weight"
            },
            {
              "system": "http://snomed.info/sct",
              "code": "27113001",
              "display": "Body weight"
            }
          ],
          "text": "Body weight, 79 kg"
        },
        "subject": {
          "reference": "urn:uuid:b7951809-0acb-4dfa-ba90-3032869e0685",
          "type": "Patient"
        },
        "encounter": {
          "reference": "urn:uuid:ab2539ee-fd55-4abc-9898-d4c1520dd2ba",
          "identifier": {
            "system": "https://emis.com/Id/Consultation/GUID",
            "value": "ab2539ee-fd55-4abc-9898-d4c1520dd2ba",
            "assigner": {
              "identifier": {
                "system": "https://fhir.nhs.uk/Id/ods-organization-code",
                "value": "F83004"
              }
            }
          }
        },
        "effectiveDateTime": "2024-11-08T15:51:00+00:00",
        "issued": "2024-11-08T15:51:00.000+00:00",
        "performer": [
          {
            "reference": "urn:uuid:a716058c-f9d5-4537-b1e7-d021bd2185a3",
            "type": "Practitioner",
            "identifier": {
              "system": "https://fhir.hl7.org.uk/Id/professional-code",
              "value": "25825845"
            },
            "display": "Dr HealthOnline Test"
          }
        ],
        "valueQuantity": {
          "value": 79,
          "unit": "kg",
          "system": "http://unitsofmeasure.org",
          "code": "kg"
        }
      }
    },
    {
      "fullUrl": "urn:uuid:f859d2b0-a68f-4ff5-aa5d-44ebeff18505",
      "resource": {
        "resourceType": "Observation",
        "id": "f859d2b0-a68f-4ff5-aa5d-44ebeff18505",
        "identifier": [
          {
            "use": "secondary",
            "system": "https://emis.com/Id/Event/DBID",
            "value": "3265",
            "assigner": {
              "identifier": {
                "system": "https://fhir.nhs.uk/Id/ods-organization-code",
                "value": "F83004"
              }
            }
          },
          {
            "use": "usual",
            "system": "https://emis.com/Id/Event/GUID",
            "value": "f859d2b0-a68f-4ff5-aa5d-44ebeff18505",
            "assigner": {
              "identifier": {
                "system": "https://fhir.nhs.uk/Id/ods-organization-code",
                "value": "F83004"
              }
            }
          }
        ],
        "status": "unknown",
        "category": [
          {
            "coding": [
              {
                "system": "http://terminology.hl7.org/CodeSystem/observation-category",
                "code": "laboratory"
              }
            ]
          }
        ],
        "code": {
          "coding": [
            {
              "system": "http://read.info/readv2",
              "code": "229..",
              "display": "Standing height"
            },
            {
              "system": "http://snomed.info/sct",
              "code": "248333004",
              "display": "Standing height"
            }
          ],
          "text": "Standing height, 179 cm"
        },
        "subject": {
          "reference": "urn:uuid:b7951809-0acb-4dfa-ba90-3032869e0685",
          "type": "Patient"
        },
        "encounter": {
          "reference": "urn:uuid:ab2539ee-fd55-4abc-9898-d4c1520dd2ba",
          "identifier": {
            "system": "https://emis.com/Id/Consultation/GUID",
            "value": "ab2539ee-fd55-4abc-9898-d4c1520dd2ba",
            "assigner": {
              "identifier": {
                "system": "https://fhir.nhs.uk/Id/ods-organization-code",
                "value": "F83004"
              }
            }
          }
        },
        "effectiveDateTime": "2024-11-08T15:51:00+00:00",
        "issued": "2024-11-08T15:51:00.000+00:00",
        "performer": [
          {
            "reference": "urn:uuid:a716058c-f9d5-4537-b1e7-d021bd2185a3",
            "type": "Practitioner",
            "identifier": {
              "system": "https://fhir.hl7.org.uk/Id/professional-code",
              "value": "25825845"
            },
            "display": "Dr HealthOnline Test"
          }
        ],
        "valueQuantity": {
          "value": 179,
          "unit": "cm",
          "system": "http://unitsofmeasure.org",
          "code": "cm"
        }
      }
    },
    {
      "fullUrl": "urn:uuid:9f8e11e9-381e-434c-b9da-a309ee669f83",
      "resource": {
        "resourceType": "Observation",
        "id": "9f8e11e9-381e-434c-b9da-a309ee669f83",
        "identifier": [
          {
            "use": "secondary",
            "system": "https://emis.com/Id/Event/DBID",
            "value": "3266",
            "assigner": {
              "identifier": {
                "system": "https://fhir.nhs.uk/Id/ods-organization-code",
                "value": "F83004"
              }
            }
          },
          {
            "use": "usual",
            "system": "https://emis.com/Id/Event/GUID",
            "value": "9f8e11e9-381e-434c-b9da-a309ee669f83",
            "assigner": {
              "identifier": {
                "system": "https://fhir.nhs.uk/Id/ods-organization-code",
                "value": "F83004"
              }
            }
          }
        ],
        "status": "unknown",
        "category": [
          {
            "coding": [
              {
                "system": "http://terminology.hl7.org/CodeSystem/observation-category",
                "code": "vital-signs"
              }
            ]
          }
        ],
        "code": {
          "coding": [
            {
              "system": "http://read.info/readv2",
              "code": "22K..",
              "display": "Body mass index"
            },
            {
              "system": "http://snomed.info/sct",
              "code": "60621009",
              "display": "Body mass index"
            }
          ],
          "text": "Body mass index, 24.66 kg/m2"
        },
        "subject": {
          "reference": "urn:uuid:b7951809-0acb-4dfa-ba90-3032869e0685",
          "type": "Patient"
        },
        "encounter": {
          "reference": "urn:uuid:ab2539ee-fd55-4abc-9898-d4c1520dd2ba",
          "identifier": {
            "system": "https://emis.com/Id/Consultation/GUID",
            "value": "ab2539ee-fd55-4abc-9898-d4c1520dd2ba",
            "assigner": {
              "identifier": {
                "system": "https://fhir.nhs.uk/Id/ods-organization-code",
                "value": "F83004"
              }
            }
          }
        },
        "effectiveDateTime": "2024-11-08T15:51:00+00:00",
        "issued": "2024-11-08T15:51:00.000+00:00",
        "performer": [
          {
            "reference": "urn:uuid:a716058c-f9d5-4537-b1e7-d021bd2185a3",
            "type": "Practitioner",
            "identifier": {
              "system": "https://fhir.hl7.org.uk/Id/professional-code",
              "value": "25825845"
            },
            "display": "Dr HealthOnline Test"
          }
        ],
        "valueQuantity": {
          "value": 24.66,
          "unit": "kg/m2",
          "system": "http://unitsofmeasure.org",
          "code": "kg/m2"
        }
      }
    },
    {
      "fullUrl": "urn:uuid:d7c55283-f991-4854-85f5-e6def3cc82be",
      "resource": {
        "resourceType": "Observation",
        "id": "d7c55283-f991-4854-85f5-e6def3cc82be",
        "identifier": [
          {
            "use": "secondary",
            "system": "https://emis.com/Id/Event/DBID",
            "value": "3267",
            "assigner": {
              "identifier": {
                "system": "https://fhir.nhs.uk/Id/ods-organization-code",
                "value": "F83004"
              }
            }
          },
          {
            "use": "usual",
            "system": "https://emis.com/Id/Event/GUID",
            "value": "d7c55283-f991-4854-85f5-e6def3cc82be",
            "assigner": {
              "identifier": {
                "system": "https://fhir.nhs.uk/Id/ods-organization-code",
                "value": "F83004"
              }
            }
          }
        ],
        "status": "unknown",
        "category": [
          {
            "coding": [
              {
                "system": "http://terminology.hl7.org/CodeSystem/observation-category",
                "code": "exam"
              }
            ]
          }
        ],
        "code": {
          "coding": [
            {
              "system": "http://read.info/readv2",
              "code": "^ESCTPH398275",
              "display": "Physical therapy procedure"
            },
            {
              "system": "http://snomed.info/sct",
              "code": "91251008",
              "display": "Physical therapy procedure"
            }
          ],
          "text": "Physical therapy procedure"
        },
        "subject": {
          "reference": "urn:uuid:b7951809-0acb-4dfa-ba90-3032869e0685",
          "type": "Patient"
        },
        "encounter": {
          "reference": "urn:uuid:ab2539ee-fd55-4abc-9898-d4c1520dd2ba",
          "identifier": {
            "system": "https://emis.com/Id/Consultation/GUID",
            "value": "ab2539ee-fd55-4abc-9898-d4c1520dd2ba",
            "assigner": {
              "identifier": {
                "system": "https://fhir.nhs.uk/Id/ods-organization-code",
                "value": "F83004"
              }
            }
          }
        },
        "effectiveDateTime": "2024-11-08T15:51:00+00:00",
        "issued": "2024-11-08T15:51:00.000+00:00",
        "performer": [
          {
            "reference": "urn:uuid:a716058c-f9d5-4537-b1e7-d021bd2185a3",
            "type": "Practitioner",
            "identifier": {
              "system": "https://fhir.hl7.org.uk/Id/professional-code",
              "value": "25825845"
            },
            "display": "Dr HealthOnline Test"
          }
        ]
      }
    },
    {
      "fullUrl": "urn:uuid:71f58a26-5daa-491d-b85f-cf60fbe90236",
      "resource": {
        "resourceType": "ServiceRequest",
        "id": "71f58a26-5daa-491d-b85f-cf60fbe90236",
        "identifier": [
          {
            "use": "secondary",
            "system": "https://emis.com/Id/Referral/DBID",
            "value": "3269",
            "assigner": {
              "identifier": {
                "system": "https://fhir.nhs.uk/Id/ods-organization-code",
                "value": "F83004"
              }
            }
          },
          {
            "use": "usual",
            "system": "https://emis.com/Id/Referral/GUID",
            "value": "71f58a26-5daa-491d-b85f-cf60fbe90236",
            "assigner": {
              "identifier": {
                "system": "https://fhir.nhs.uk/Id/ods-organization-code",
                "value": "F83004"
              }
            }
          }
        ],
        "code": {
          "text": "Refer for thyroid test"
        },
        "subject": {
          "reference": "urn:uuid:b7951809-0acb-4dfa-ba90-3032869e0685",
          "type": "Patient"
        },
        "encounter": {
          "reference": "urn:uuid:ab2539ee-fd55-4abc-9898-d4c1520dd2ba",
          "identifier": {
            "system": "https://emis.com/Id/Consultation/GUID",
            "value": "ab2539ee-fd55-4abc-9898-d4c1520dd2ba",
            "assigner": {
              "identifier": {
                "system": "https://fhir.nhs.uk/Id/ods-organization-code",
                "value": "F83004"
              }
            }
          }
        },
        "authoredOn": "2024-11-08T00:00:00+00:00",
        "requester": {
          "reference": "urn:uuid:a716058c-f9d5-4537-b1e7-d021bd2185a3",
          "type": "Practitioner",
          "identifier": {
            "system": "https://fhir.hl7.org.uk/Id/professional-code",
            "value": "25825845"
          },
          "display": "Dr HealthOnline Test"
        }
      }
    },
    {
      "fullUrl": "urn:uuid:900566b1-a93d-4cb1-998a-a5141e2127bf",
      "resource": {
        "resourceType": "DocumentReference",
        "id": "3272",
        "identifier": [
          {
            "use": "secondary",
            "system": "https://emis.com/Id/Attachment/DBID",
            "value": "3272",
            "assigner": {
              "identifier": {
                "system": "https://fhir.nhs.uk/Id/ods-organization-code",
                "value": "F83004"
              }
            }
          },
          {
            "use": "usual",
            "system": "https://emis.com/Id/Attachment/GUID",
            "value": "900566b1-a93d-4cb1-998a-a5141e2127bf",
            "assigner": {
              "identifier": {
                "system": "https://fhir.nhs.uk/Id/ods-organization-code",
                "value": "F83004"
              }
            }
          }
        ],
        "status": "current",
        "type": {
          "coding": [
            {
              "system": "http://read.info/readv2",
              "code": "9b0g.",
              "display": "Referral letter"
            },
            {
              "system": "http://snomed.info/sct",
              "code": "25611000000107",
              "display": "Referral letter"
            }
          ],
          "text": "Referral Letter (08-Nov-2024)"
        },
        "subject": {
          "reference": "urn:uuid:b7951809-0acb-4dfa-ba90-3032869e0685",
          "type": "Patient"
        },
        "date": "2024-11-08T00:00:00.000+00:00",
        "author": [
          {
            "reference": "urn:uuid:a716058c-f9d5-4537-b1e7-d021bd2185a3",
            "type": "Practitioner",
            "identifier": {
              "system": "https://fhir.hl7.org.uk/Id/professional-code",
              "value": "25825845"
            },
            "display": "Dr HealthOnline Test"
          }
        ],
        "content": [
          {
            "attachment": {
              "url": "Binary/1350ff0a-9660-445d-b835-97ef764a9436",
              "title": "2411081558_Referral Letter.rtf"
            }
          }
        ],
        "context": {
          "encounter": [
            {
              "reference": "urn:uuid:ab2539ee-fd55-4abc-9898-d4c1520dd2ba",
              "identifier": {
                "system": "https://emis.com/Id/Consultation/GUID",
                "value": "ab2539ee-fd55-4abc-9898-d4c1520dd2ba",
                "assigner": {
                  "identifier": {
                    "system": "https://fhir.nhs.uk/Id/ods-organization-code",
                    "value": "F83004"
                  }
                }
              }
            }
          ],
          "event": [
            {
              "coding": [
                {
                  "system": "http://read.info/readv2",
                  "code": "9b0g.",
                  "display": "Referral letter"
                },
                {
                  "system": "http://snomed.info/sct",
                  "code": "25611000000107",
                  "display": "Referral letter"
                }
              ],
              "text": "Referral Letter (08-Nov-2024)"
            }
          ]
        }
      }
    },
    {
      "fullUrl": "urn:uuid:4a838ced-3568-4839-b247-316fabef3163",
      "resource": {
        "resourceType": "DocumentReference",
        "id": "3273",
        "identifier": [
          {
            "use": "secondary",
            "system": "https://emis.com/Id/Attachment/DBID",
            "value": "3273",
            "assigner": {
              "identifier": {
                "system": "https://fhir.nhs.uk/Id/ods-organization-code",
                "value": "F83004"
              }
            }
          },
          {
            "use": "usual",
            "system": "https://emis.com/Id/Attachment/GUID",
            "value": "4a838ced-3568-4839-b247-316fabef3163",
            "assigner": {
              "identifier": {
                "system": "https://fhir.nhs.uk/Id/ods-organization-code",
                "value": "F83004"
              }
            }
          }
        ],
        "status": "current",
        "type": {
          "coding": [
            {
              "system": "http://read.info/readv2",
              "code": "9b0B.",
              "display": "Discharge summary report"
            },
            {
              "system": "http://snomed.info/sct",
              "code": "25581000000101",
              "display": "Discharge summary report"
            }
          ],
          "text": "Discharge summary report"
        },
        "subject": {
          "reference": "urn:uuid:b7951809-0acb-4dfa-ba90-3032869e0685",
          "type": "Patient"
        },
        "date": "2024-11-08T15:51:00.000+00:00",
        "author": [
          {
            "reference": "urn:uuid:a716058c-f9d5-4537-b1e7-d021bd2185a3",
            "type": "Practitioner",
            "identifier": {
              "system": "https://fhir.hl7.org.uk/Id/professional-code",
              "value": "25825845"
            },
            "display": "Dr HealthOnline Test"
          }
        ],
        "content": [
          {
            "attachment": {
              "url": "Binary/bdd1a93f-ba2e-437d-aca7-c2130fa392d7",
              "title": "Example NHS Health Checks Template HMP Mnachester.pdf"
            }
          }
        ],
        "context": {
          "encounter": [
            {
              "reference": "urn:uuid:ab2539ee-fd55-4abc-9898-d4c1520dd2ba",
              "identifier": {
                "system": "https://emis.com/Id/Consultation/GUID",
                "value": "ab2539ee-fd55-4abc-9898-d4c1520dd2ba",
                "assigner": {
                  "identifier": {
                    "system": "https://fhir.nhs.uk/Id/ods-organization-code",
                    "value": "F83004"
                  }
                }
              }
            }
          ],
          "event": [
            {
              "coding": [
                {
                  "system": "http://read.info/readv2",
                  "code": "9b0B.",
                  "display": "Discharge summary report"
                },
                {
                  "system": "http://snomed.info/sct",
                  "code": "25581000000101",
                  "display": "Discharge summary report"
                }
              ],
              "text": "Discharge summary report"
            }
          ]
        }
      }
    },
    {
      "fullUrl": "urn:uuid:b795e488-21eb-49cb-9360-d4cb7a02dc6e",
      "resource": {
        "resourceType": "AllergyIntolerance",
        "id": "b795e488-21eb-49cb-9360-d4cb7a02dc6e",
        "identifier": [
          {
            "use": "secondary",
            "system": "https://emis.com/Id/Event/DBID",
            "value": "3274",
            "assigner": {
              "identifier": {
                "system": "https://fhir.nhs.uk/Id/ods-organization-code",
                "value": "F83004"
              }
            }
          },
          {
            "use": "usual",
            "system": "https://emis.com/Id/Event/GUID",
            "value": "b795e488-21eb-49cb-9360-d4cb7a02dc6e",
            "assigner": {
              "identifier": {
                "system": "https://fhir.nhs.uk/Id/ods-organization-code",
                "value": "F83004"
              }
            }
          }
        ],
        "code": {
          "coding": [
            {
              "system": "http://read.info/readv2",
              "code": "1Z3..",
              "display": "Adverse reaction to drug"
            },
            {
              "system": "http://snomed.info/sct",
              "code": "62014003",
              "display": "Adverse reaction to drug"
            }
          ],
          "text": "Adverse reaction to drug"
        },
        "patient": {
          "reference": "urn:uuid:b7951809-0acb-4dfa-ba90-3032869e0685",
          "type": "Patient"
        },
        "encounter": {
          "reference": "urn:uuid:ab2539ee-fd55-4abc-9898-d4c1520dd2ba",
          "identifier": {
            "system": "https://emis.com/Id/Consultation/GUID",
            "value": "ab2539ee-fd55-4abc-9898-d4c1520dd2ba",
            "assigner": {
              "identifier": {
                "system": "https://fhir.nhs.uk/Id/ods-organization-code",
                "value": "F83004"
              }
            }
          }
        },
        "recordedDate": "2024-11-08T15:51:00+00:00",
        "recorder": {
          "reference": "urn:uuid:a716058c-f9d5-4537-b1e7-d021bd2185a3",
          "type": "Practitioner",
          "identifier": {
            "system": "https://fhir.hl7.org.uk/Id/professional-code",
            "value": "25825845"
          },
          "display": "Dr HealthOnline Test"
        }
      }
    },
    {
      "fullUrl": "urn:uuid:6a18b33e-23f7-4fab-9899-232e494267c7",
      "resource": {
        "resourceType": "AllergyIntolerance",
        "id": "6a18b33e-23f7-4fab-9899-232e494267c7",
        "identifier": [
          {
            "use": "secondary",
            "system": "https://emis.com/Id/Event/DBID",
            "value": "3275",
            "assigner": {
              "identifier": {
                "system": "https://fhir.nhs.uk/Id/ods-organization-code",
                "value": "F83004"
              }
            }
          },
          {
            "use": "usual",
            "system": "https://emis.com/Id/Event/GUID",
            "value": "6a18b33e-23f7-4fab-9899-232e494267c7",
            "assigner": {
              "identifier": {
                "system": "https://fhir.nhs.uk/Id/ods-organization-code",
                "value": "F83004"
              }
            }
          }
        ],
        "code": {
          "coding": [
            {
              "system": "http://read.info/readv2",
              "code": "^ESCTAL688730",
              "display": "Allergy to drug"
            },
            {
              "system": "http://snomed.info/sct",
              "code": "416098002",
              "display": "Allergy to drug"
            }
          ],
          "text": "Allergy to drug"
        },
        "patient": {
          "reference": "urn:uuid:b7951809-0acb-4dfa-ba90-3032869e0685",
          "type": "Patient"
        },
        "encounter": {
          "reference": "urn:uuid:ab2539ee-fd55-4abc-9898-d4c1520dd2ba",
          "identifier": {
            "system": "https://emis.com/Id/Consultation/GUID",
            "value": "ab2539ee-fd55-4abc-9898-d4c1520dd2ba",
            "assigner": {
              "identifier": {
                "system": "https://fhir.nhs.uk/Id/ods-organization-code",
                "value": "F83004"
              }
            }
          }
        },
        "recordedDate": "2024-11-08T15:51:00+00:00",
        "recorder": {
          "reference": "urn:uuid:a716058c-f9d5-4537-b1e7-d021bd2185a3",
          "type": "Practitioner",
          "identifier": {
            "system": "https://fhir.hl7.org.uk/Id/professional-code",
            "value": "25825845"
          },
          "display": "Dr HealthOnline Test"
        }
      }
    },
    {
      "fullUrl": "urn:uuid:6e1a1654-a02b-4638-bad1-c64b65fd09f3",
      "resource": {
        "resourceType": "AllergyIntolerance",
        "id": "6e1a1654-a02b-4638-bad1-c64b65fd09f3",
        "identifier": [
          {
            "use": "secondary",
            "system": "https://emis.com/Id/Event/DBID",
            "value": "3276",
            "assigner": {
              "identifier": {
                "system": "https://fhir.nhs.uk/Id/ods-organization-code",
                "value": "F83004"
              }
            }
          },
          {
            "use": "usual",
            "system": "https://emis.com/Id/Event/GUID",
            "value": "6e1a1654-a02b-4638-bad1-c64b65fd09f3",
            "assigner": {
              "identifier": {
                "system": "https://fhir.nhs.uk/Id/ods-organization-code",
                "value": "F83004"
              }
            }
          }
        ],
        "code": {
          "coding": [
            {
              "system": "http://read.info/readv2",
              "code": "^ESCT1379761",
              "display": "Allergy to aspirin"
            },
            {
              "system": "http://snomed.info/sct",
              "code": "293586001",
              "display": "Allergy to aspirin"
            }
          ],
          "text": "Allergy to aspirin"
        },
        "patient": {
          "reference": "urn:uuid:b7951809-0acb-4dfa-ba90-3032869e0685",
          "type": "Patient"
        },
        "encounter": {
          "reference": "urn:uuid:ab2539ee-fd55-4abc-9898-d4c1520dd2ba",
          "identifier": {
            "system": "https://emis.com/Id/Consultation/GUID",
            "value": "ab2539ee-fd55-4abc-9898-d4c1520dd2ba",
            "assigner": {
              "identifier": {
                "system": "https://fhir.nhs.uk/Id/ods-organization-code",
                "value": "F83004"
              }
            }
          }
        },
        "recordedDate": "2024-11-08T15:51:00+00:00",
        "recorder": {
          "reference": "urn:uuid:a716058c-f9d5-4537-b1e7-d021bd2185a3",
          "type": "Practitioner",
          "identifier": {
            "system": "https://fhir.hl7.org.uk/Id/professional-code",
            "value": "25825845"
          },
          "display": "Dr HealthOnline Test"
        }
      }
    },
    {
      "fullUrl": "urn:uuid:552182f3-208a-479f-ad28-bca5a82e312e",
      "resource": {
        "resourceType": "Observation",
        "id": "552182f3-208a-479f-ad28-bca5a82e312e",
        "identifier": [
          {
            "use": "secondary",
            "system": "https://emis.com/Id/Event/DBID",
            "value": "3277",
            "assigner": {
              "identifier": {
                "system": "https://fhir.nhs.uk/Id/ods-organization-code",
                "value": "F83004"
              }
            }
          },
          {
            "use": "usual",
            "system": "https://emis.com/Id/Event/GUID",
            "value": "552182f3-208a-479f-ad28-bca5a82e312e",
            "assigner": {
              "identifier": {
                "system": "https://fhir.nhs.uk/Id/ods-organization-code",
                "value": "F83004"
              }
            }
          }
        ],
        "status": "unknown",
        "category": [
          {
            "coding": [
              {
                "system": "http://terminology.hl7.org/CodeSystem/observation-category",
                "code": "social-history"
              }
            ]
          }
        ],
        "code": {
          "coding": [
            {
              "system": "http://read.info/readv2",
              "code": "12X0.",
              "display": "Family history of alcohol misuse"
            },
            {
              "system": "http://snomed.info/sct",
              "code": "293161000000103",
              "display": "Family history of alcohol misuse"
            }
          ],
          "text": "Family history of alcohol misuse (Aunt)"
        },
        "subject": {
          "reference": "urn:uuid:b7951809-0acb-4dfa-ba90-3032869e0685",
          "type": "Patient"
        },
        "encounter": {
          "reference": "urn:uuid:ab2539ee-fd55-4abc-9898-d4c1520dd2ba",
          "identifier": {
            "system": "https://emis.com/Id/Consultation/GUID",
            "value": "ab2539ee-fd55-4abc-9898-d4c1520dd2ba",
            "assigner": {
              "identifier": {
                "system": "https://fhir.nhs.uk/Id/ods-organization-code",
                "value": "F83004"
              }
            }
          }
        },
        "effectiveDateTime": "2024-11-08T15:51:00+00:00",
        "issued": "2024-11-08T15:51:00.000+00:00",
        "performer": [
          {
            "reference": "urn:uuid:a716058c-f9d5-4537-b1e7-d021bd2185a3",
            "type": "Practitioner",
            "identifier": {
              "system": "https://fhir.hl7.org.uk/Id/professional-code",
              "value": "25825845"
            },
            "display": "Dr HealthOnline Test"
          }
        ]
      }
    },
    {
      "fullUrl": "urn:uuid:3fe68913-6016-46b1-a20a-fb97fd125ea1",
      "resource": {
        "resourceType": "Observation",
        "id": "3fe68913-6016-46b1-a20a-fb97fd125ea1",
        "identifier": [
          {
            "use": "secondary",
            "system": "https://emis.com/Id/Event/DBID",
            "value": "3278",
            "assigner": {
              "identifier": {
                "system": "https://fhir.nhs.uk/Id/ods-organization-code",
                "value": "F83004"
              }
            }
          },
          {
            "use": "usual",
            "system": "https://emis.com/Id/Event/GUID",
            "value": "3fe68913-6016-46b1-a20a-fb97fd125ea1",
            "assigner": {
              "identifier": {
                "system": "https://fhir.nhs.uk/Id/ods-organization-code",
                "value": "F83004"
              }
            }
          }
        ],
        "status": "unknown",
        "category": [
          {
            "coding": [
              {
                "system": "http://terminology.hl7.org/CodeSystem/observation-category",
                "code": "exam"
              }
            ]
          }
        ],
        "code": {
          "coding": [
            {
              "system": "http://read.info/readv2",
              "code": "EMISNQVE3",
              "display": "Venous blood specimen"
            },
            {
              "system": "http://snomed.info/sct",
              "code": "122555007",
              "display": "Venous blood specimen"
            }
          ],
          "text": "Venous blood specimen"
        },
        "subject": {
          "reference": "urn:uuid:b7951809-0acb-4dfa-ba90-3032869e0685",
          "type": "Patient"
        },
        "encounter": {
          "reference": "urn:uuid:ab2539ee-fd55-4abc-9898-d4c1520dd2ba",
          "identifier": {
            "system": "https://emis.com/Id/Consultation/GUID",
            "value": "ab2539ee-fd55-4abc-9898-d4c1520dd2ba",
            "assigner": {
              "identifier": {
                "system": "https://fhir.nhs.uk/Id/ods-organization-code",
                "value": "F83004"
              }
            }
          }
        },
        "effectiveDateTime": "2024-11-08T00:00:00+00:00",
        "issued": "2024-11-08T00:00:00.000+00:00",
        "performer": [
          {
            "reference": "urn:uuid:a716058c-f9d5-4537-b1e7-d021bd2185a3",
            "type": "Practitioner",
            "identifier": {
              "system": "https://fhir.hl7.org.uk/Id/professional-code",
              "value": "25825845"
            },
            "display": "Dr HealthOnline Test"
          }
        ]
      }
    },
    {
      "fullUrl": "urn:uuid:603260f4-3d90-4418-925b-4766f96f8575",
      "resource": {
        "resourceType": "Observation",
        "id": "603260f4-3d90-4418-925b-4766f96f8575",
        "identifier": [
          {
            "use": "secondary",
            "system": "https://emis.com/Id/Event/DBID",
            "value": "3281",
            "assigner": {
              "identifier": {
                "system": "https://fhir.nhs.uk/Id/ods-organization-code",
                "value": "F83004"
              }
            }
          },
          {
            "use": "usual",
            "system": "https://emis.com/Id/Event/GUID",
            "value": "603260f4-3d90-4418-925b-4766f96f8575",
            "assigner": {
              "identifier": {
                "system": "https://fhir.nhs.uk/Id/ods-organization-code",
                "value": "F83004"
              }
            }
          }
        ],
        "status": "unknown",
        "category": [
          {
            "coding": [
              {
                "system": "http://terminology.hl7.org/CodeSystem/observation-category",
                "code": "social-history"
              }
            ]
          }
        ],
        "code": {
          "coding": [
            {
              "system": "http://read.info/readv2",
              "code": "1228.",
              "display": "No family history diabetes"
            },
            {
              "system": "http://snomed.info/sct",
              "code": "160274005",
              "display": "No family history diabetes"
            }
          ],
          "text": "No family history diabetes"
        },
        "subject": {
          "reference": "urn:uuid:b7951809-0acb-4dfa-ba90-3032869e0685",
          "type": "Patient"
        },
        "encounter": {
          "reference": "urn:uuid:ab2539ee-fd55-4abc-9898-d4c1520dd2ba",
          "identifier": {
            "system": "https://emis.com/Id/Consultation/GUID",
            "value": "ab2539ee-fd55-4abc-9898-d4c1520dd2ba",
            "assigner": {
              "identifier": {
                "system": "https://fhir.nhs.uk/Id/ods-organization-code",
                "value": "F83004"
              }
            }
          }
        },
        "effectiveDateTime": "2024-11-08T15:51:00+00:00",
        "issued": "2024-11-08T15:51:00.000+00:00",
        "performer": [
          {
            "reference": "urn:uuid:a716058c-f9d5-4537-b1e7-d021bd2185a3",
            "type": "Practitioner",
            "identifier": {
              "system": "https://fhir.hl7.org.uk/Id/professional-code",
              "value": "25825845"
            },
            "display": "Dr HealthOnline Test"
          }
        ]
      }
    },
    {
      "fullUrl": "urn:uuid:0242b574-fa7b-4614-9e7d-2a5736b58eda",
      "resource": {
        "resourceType": "Observation",
        "id": "0242b574-fa7b-4614-9e7d-2a5736b58eda",
        "identifier": [
          {
            "use": "secondary",
            "system": "https://emis.com/Id/Event/DBID",
            "value": "3282",
            "assigner": {
              "identifier": {
                "system": "https://fhir.nhs.uk/Id/ods-organization-code",
                "value": "F83004"
              }
            }
          },
          {
            "use": "usual",
            "system": "https://emis.com/Id/Event/GUID",
            "value": "0242b574-fa7b-4614-9e7d-2a5736b58eda",
            "assigner": {
              "identifier": {
                "system": "https://fhir.nhs.uk/Id/ods-organization-code",
                "value": "F83004"
              }
            }
          }
        ],
        "status": "unknown",
        "category": [
          {
            "coding": [
              {
                "system": "http://terminology.hl7.org/CodeSystem/observation-category",
                "code": "social-history"
              }
            ]
          }
        ],
        "code": {
          "coding": [
            {
              "system": "http://read.info/readv2",
              "code": "1243.",
              "display": "Family history of breast cancer"
            },
            {
              "system": "http://snomed.info/sct",
              "code": "429740004",
              "display": "Family history of breast cancer"
            }
          ],
          "text": "Family history of breast cancer (Uncle)"
        },
        "subject": {
          "reference": "urn:uuid:b7951809-0acb-4dfa-ba90-3032869e0685",
          "type": "Patient"
        },
        "encounter": {
          "reference": "urn:uuid:ab2539ee-fd55-4abc-9898-d4c1520dd2ba",
          "identifier": {
            "system": "https://emis.com/Id/Consultation/GUID",
            "value": "ab2539ee-fd55-4abc-9898-d4c1520dd2ba",
            "assigner": {
              "identifier": {
                "system": "https://fhir.nhs.uk/Id/ods-organization-code",
                "value": "F83004"
              }
            }
          }
        },
        "effectiveDateTime": "2024-11-08T15:51:00+00:00",
        "issued": "2024-11-08T15:51:00.000+00:00",
        "performer": [
          {
            "reference": "urn:uuid:a716058c-f9d5-4537-b1e7-d021bd2185a3",
            "type": "Practitioner",
            "identifier": {
              "system": "https://fhir.hl7.org.uk/Id/professional-code",
              "value": "25825845"
            },
            "display": "Dr HealthOnline Test"
          }
        ]
      }
    },
    {
      "fullUrl": "urn:uuid:9c58bbb7-7211-48fc-8368-1b88d04fc6cf",
      "resource": {
        "resourceType": "Observation",
        "id": "9c58bbb7-7211-48fc-8368-1b88d04fc6cf",
        "identifier": [
          {
            "use": "secondary",
            "system": "https://emis.com/Id/Event/DBID",
            "value": "3283",
            "assigner": {
              "identifier": {
                "system": "https://fhir.nhs.uk/Id/ods-organization-code",
                "value": "F83004"
              }
            }
          },
          {
            "use": "usual",
            "system": "https://emis.com/Id/Event/GUID",
            "value": "9c58bbb7-7211-48fc-8368-1b88d04fc6cf",
            "assigner": {
              "identifier": {
                "system": "https://fhir.nhs.uk/Id/ods-organization-code",
                "value": "F83004"
              }
            }
          }
        ],
        "status": "unknown",
        "category": [
          {
            "coding": [
              {
                "system": "http://terminology.hl7.org/CodeSystem/observation-category",
                "code": "exam"
              }
            ]
          }
        ],
        "code": {
          "coding": [
            {
              "system": "http://read.info/readv2",
              "code": "137L.",
              "display": "Current non-smoker"
            },
            {
              "system": "http://snomed.info/sct",
              "code": "160618006",
              "display": "Current non-smoker"
            }
          ],
          "text": "Current non-smoker"
        },
        "subject": {
          "reference": "urn:uuid:b7951809-0acb-4dfa-ba90-3032869e0685",
          "type": "Patient"
        },
        "encounter": {
          "reference": "urn:uuid:ab2539ee-fd55-4abc-9898-d4c1520dd2ba",
          "identifier": {
            "system": "https://emis.com/Id/Consultation/GUID",
            "value": "ab2539ee-fd55-4abc-9898-d4c1520dd2ba",
            "assigner": {
              "identifier": {
                "system": "https://fhir.nhs.uk/Id/ods-organization-code",
                "value": "F83004"
              }
            }
          }
        },
        "effectiveDateTime": "2024-11-08T15:51:00+00:00",
        "issued": "2024-11-08T15:51:00.000+00:00",
        "performer": [
          {
            "reference": "urn:uuid:a716058c-f9d5-4537-b1e7-d021bd2185a3",
            "type": "Practitioner",
            "identifier": {
              "system": "https://fhir.hl7.org.uk/Id/professional-code",
              "value": "25825845"
            },
            "display": "Dr HealthOnline Test"
          }
        ]
      }
    },
    {
      "fullUrl": "urn:uuid:27201baa-56c6-40b2-b1b5-9dc709b50f89",
      "resource": {
        "resourceType": "Observation",
        "id": "27201baa-56c6-40b2-b1b5-9dc709b50f89",
        "identifier": [
          {
            "use": "secondary",
            "system": "https://emis.com/Id/Event/DBID",
            "value": "3284",
            "assigner": {
              "identifier": {
                "system": "https://fhir.nhs.uk/Id/ods-organization-code",
                "value": "F83004"
              }
            }
          },
          {
            "use": "usual",
            "system": "https://emis.com/Id/Event/GUID",
            "value": "27201baa-56c6-40b2-b1b5-9dc709b50f89",
            "assigner": {
              "identifier": {
                "system": "https://fhir.nhs.uk/Id/ods-organization-code",
                "value": "F83004"
              }
            }
          }
        ],
        "status": "unknown",
        "category": [
          {
            "coding": [
              {
                "system": "http://terminology.hl7.org/CodeSystem/observation-category",
                "code": "exam"
              }
            ]
          }
        ],
        "code": {
          "coding": [
            {
              "system": "http://read.info/readv2",
              "code": "G20..",
              "display": "Essential hypertension"
            },
            {
              "system": "http://snomed.info/sct",
              "code": "59621000",
              "display": "Essential hypertension"
            }
          ],
          "text": "Essential hypertension"
        },
        "subject": {
          "reference": "urn:uuid:b7951809-0acb-4dfa-ba90-3032869e0685",
          "type": "Patient"
        },
        "encounter": {
          "reference": "urn:uuid:ab2539ee-fd55-4abc-9898-d4c1520dd2ba",
          "identifier": {
            "system": "https://emis.com/Id/Consultation/GUID",
            "value": "ab2539ee-fd55-4abc-9898-d4c1520dd2ba",
            "assigner": {
              "identifier": {
                "system": "https://fhir.nhs.uk/Id/ods-organization-code",
                "value": "F83004"
              }
            }
          }
        },
        "effectiveDateTime": "2024-11-08T15:51:00+00:00",
        "issued": "2024-11-08T15:51:00.000+00:00",
        "performer": [
          {
            "reference": "urn:uuid:a716058c-f9d5-4537-b1e7-d021bd2185a3",
            "type": "Practitioner",
            "identifier": {
              "system": "https://fhir.hl7.org.uk/Id/professional-code",
              "value": "25825845"
            },
            "display": "Dr HealthOnline Test"
          }
        ]
      }
    },
    {
      "fullUrl": "urn:uuid:0abe00a6-7142-4cac-8478-042516975bf3",
      "resource": {
        "resourceType": "Observation",
        "id": "0abe00a6-7142-4cac-8478-042516975bf3",
        "identifier": [
          {
            "use": "secondary",
            "system": "https://emis.com/Id/Event/DBID",
            "value": "3285",
            "assigner": {
              "identifier": {
                "system": "https://fhir.nhs.uk/Id/ods-organization-code",
                "value": "F83004"
              }
            }
          },
          {
            "use": "usual",
            "system": "https://emis.com/Id/Event/GUID",
            "value": "0abe00a6-7142-4cac-8478-042516975bf3",
            "assigner": {
              "identifier": {
                "system": "https://fhir.nhs.uk/Id/ods-organization-code",
                "value": "F83004"
              }
            }
          }
        ],
        "status": "unknown",
        "category": [
          {
            "coding": [
              {
                "system": "http://terminology.hl7.org/CodeSystem/observation-category",
                "code": "exam"
              }
            ]
          }
        ],
        "code": {
          "coding": [
            {
              "system": "http://read.info/readv2",
              "code": "662P.",
              "display": "Hypertension monitoring"
            },
            {
              "system": "http://snomed.info/sct",
              "code": "275944005",
              "display": "Hypertension monitoring"
            }
          ],
          "text": "Hypertension monitoring"
        },
        "subject": {
          "reference": "urn:uuid:b7951809-0acb-4dfa-ba90-3032869e0685",
          "type": "Patient"
        },
        "encounter": {
          "reference": "urn:uuid:ab2539ee-fd55-4abc-9898-d4c1520dd2ba",
          "identifier": {
            "system": "https://emis.com/Id/Consultation/GUID",
            "value": "ab2539ee-fd55-4abc-9898-d4c1520dd2ba",
            "assigner": {
              "identifier": {
                "system": "https://fhir.nhs.uk/Id/ods-organization-code",
                "value": "F83004"
              }
            }
          }
        },
        "effectiveDateTime": "2024-11-08T15:51:00+00:00",
        "issued": "2024-11-08T15:51:00.000+00:00",
        "performer": [
          {
            "reference": "urn:uuid:a716058c-f9d5-4537-b1e7-d021bd2185a3",
            "type": "Practitioner",
            "identifier": {
              "system": "https://fhir.hl7.org.uk/Id/professional-code",
              "value": "25825845"
            },
            "display": "Dr HealthOnline Test"
          }
        ]
      }
    },
    {
      "fullUrl": "urn:uuid:388867f2-2e40-4b13-91e5-7bbf6b309a5b",
      "resource": {
        "resourceType": "Observation",
        "id": "388867f2-2e40-4b13-91e5-7bbf6b309a5b",
        "identifier": [
          {
            "use": "secondary",
            "system": "https://emis.com/Id/Event/DBID",
            "value": "3286",
            "assigner": {
              "identifier": {
                "system": "https://fhir.nhs.uk/Id/ods-organization-code",
                "value": "F83004"
              }
            }
          },
          {
            "use": "usual",
            "system": "https://emis.com/Id/Event/GUID",
            "value": "388867f2-2e40-4b13-91e5-7bbf6b309a5b",
            "assigner": {
              "identifier": {
                "system": "https://fhir.nhs.uk/Id/ods-organization-code",
                "value": "F83004"
              }
            }
          }
        ],
        "status": "unknown",
        "category": [
          {
            "coding": [
              {
                "system": "http://terminology.hl7.org/CodeSystem/observation-category",
                "code": "exam"
              }
            ]
          }
        ],
        "code": {
          "coding": [
            {
              "system": "http://read.info/readv2",
              "code": "662c.",
              "display": "Hypertension six month review"
            },
            {
              "system": "http://snomed.info/sct",
              "code": "401048005",
              "display": "Hypertension six month review"
            }
          ],
          "text": "Hypertension six month review"
        },
        "subject": {
          "reference": "urn:uuid:b7951809-0acb-4dfa-ba90-3032869e0685",
          "type": "Patient"
        },
        "encounter": {
          "reference": "urn:uuid:ab2539ee-fd55-4abc-9898-d4c1520dd2ba",
          "identifier": {
            "system": "https://emis.com/Id/Consultation/GUID",
            "value": "ab2539ee-fd55-4abc-9898-d4c1520dd2ba",
            "assigner": {
              "identifier": {
                "system": "https://fhir.nhs.uk/Id/ods-organization-code",
                "value": "F83004"
              }
            }
          }
        },
        "effectiveDateTime": "2024-11-08T15:51:00+00:00",
        "issued": "2024-11-08T15:51:00.000+00:00",
        "performer": [
          {
            "reference": "urn:uuid:a716058c-f9d5-4537-b1e7-d021bd2185a3",
            "type": "Practitioner",
            "identifier": {
              "system": "https://fhir.hl7.org.uk/Id/professional-code",
              "value": "25825845"
            },
            "display": "Dr HealthOnline Test"
          }
        ]
      }
    },
    {
      "fullUrl": "urn:uuid:b26a203d-51d9-4dfe-a6f1-143dec6a7d28",
      "resource": {
        "resourceType": "Observation",
        "id": "b26a203d-51d9-4dfe-a6f1-143dec6a7d28",
        "identifier": [
          {
            "use": "secondary",
            "system": "https://emis.com/Id/Event/DBID",
            "value": "3287",
            "assigner": {
              "identifier": {
                "system": "https://fhir.nhs.uk/Id/ods-organization-code",
                "value": "F83004"
              }
            }
          },
          {
            "use": "usual",
            "system": "https://emis.com/Id/Event/GUID",
            "value": "b26a203d-51d9-4dfe-a6f1-143dec6a7d28",
            "assigner": {
              "identifier": {
                "system": "https://fhir.nhs.uk/Id/ods-organization-code",
                "value": "F83004"
              }
            }
          }
        ],
        "status": "unknown",
        "category": [
          {
            "coding": [
              {
                "system": "http://terminology.hl7.org/CodeSystem/observation-category",
                "code": "exam"
              }
            ]
          }
        ],
        "code": {
          "coding": [
            {
              "system": "http://read.info/readv2",
              "code": "8B3V.",
              "display": "Medication review done"
            },
            {
              "system": "http://snomed.info/sct",
              "code": "314530002",
              "display": "Medication review done"
            }
          ],
          "text": "Medication review done"
        },
        "subject": {
          "reference": "urn:uuid:b7951809-0acb-4dfa-ba90-3032869e0685",
          "type": "Patient"
        },
        "encounter": {
          "reference": "urn:uuid:ab2539ee-fd55-4abc-9898-d4c1520dd2ba",
          "identifier": {
            "system": "https://emis.com/Id/Consultation/GUID",
            "value": "ab2539ee-fd55-4abc-9898-d4c1520dd2ba",
            "assigner": {
              "identifier": {
                "system": "https://fhir.nhs.uk/Id/ods-organization-code",
                "value": "F83004"
              }
            }
          }
        },
        "effectiveDateTime": "2024-11-08T15:51:00+00:00",
        "issued": "2024-11-08T15:51:00.000+00:00",
        "performer": [
          {
            "reference": "urn:uuid:a716058c-f9d5-4537-b1e7-d021bd2185a3",
            "type": "Practitioner",
            "identifier": {
              "system": "https://fhir.hl7.org.uk/Id/professional-code",
              "value": "25825845"
            },
            "display": "Dr HealthOnline Test"
          }
        ]
      }
    },
    {
      "fullUrl": "urn:uuid:470190a2-309a-4f28-a107-418bfc22ba77",
      "resource": {
        "resourceType": "Observation",
        "id": "470190a2-309a-4f28-a107-418bfc22ba77",
        "identifier": [
          {
            "use": "secondary",
            "system": "https://emis.com/Id/Event/DBID",
            "value": "3288",
            "assigner": {
              "identifier": {
                "system": "https://fhir.nhs.uk/Id/ods-organization-code",
                "value": "F83004"
              }
            }
          },
          {
            "use": "usual",
            "system": "https://emis.com/Id/Event/GUID",
            "value": "470190a2-309a-4f28-a107-418bfc22ba77",
            "assigner": {
              "identifier": {
                "system": "https://fhir.nhs.uk/Id/ods-organization-code",
                "value": "F83004"
              }
            }
          }
        ],
        "status": "unknown",
        "category": [
          {
            "coding": [
              {
                "system": "http://terminology.hl7.org/CodeSystem/observation-category",
                "code": "exam"
              }
            ]
          }
        ],
        "code": {
          "coding": [
            {
              "system": "http://read.info/readv2",
              "code": "212K.",
              "display": "Hypertension resolved"
            },
            {
              "system": "http://snomed.info/sct",
              "code": "162659009",
              "display": "Hypertension resolved"
            }
          ],
          "text": "Hypertension resolved"
        },
        "subject": {
          "reference": "urn:uuid:b7951809-0acb-4dfa-ba90-3032869e0685",
          "type": "Patient"
        },
        "encounter": {
          "reference": "urn:uuid:ab2539ee-fd55-4abc-9898-d4c1520dd2ba",
          "identifier": {
            "system": "https://emis.com/Id/Consultation/GUID",
            "value": "ab2539ee-fd55-4abc-9898-d4c1520dd2ba",
            "assigner": {
              "identifier": {
                "system": "https://fhir.nhs.uk/Id/ods-organization-code",
                "value": "F83004"
              }
            }
          }
        },
        "effectiveDateTime": "2024-11-08T15:51:00+00:00",
        "issued": "2024-11-08T15:51:00.000+00:00",
        "performer": [
          {
            "reference": "urn:uuid:a716058c-f9d5-4537-b1e7-d021bd2185a3",
            "type": "Practitioner",
            "identifier": {
              "system": "https://fhir.hl7.org.uk/Id/professional-code",
              "value": "25825845"
            },
            "display": "Dr HealthOnline Test"
          }
        ]
      }
    },
    {
      "fullUrl": "urn:uuid:d47702bf-a108-41a2-8f1f-0e34f718a654",
      "resource": {
        "resourceType": "Observation",
        "id": "d47702bf-a108-41a2-8f1f-0e34f718a654",
        "identifier": [
          {
            "use": "secondary",
            "system": "https://emis.com/Id/Event/DBID",
            "value": "3289",
            "assigner": {
              "identifier": {
                "system": "https://fhir.nhs.uk/Id/ods-organization-code",
                "value": "F83004"
              }
            }
          },
          {
            "use": "usual",
            "system": "https://emis.com/Id/Event/GUID",
            "value": "d47702bf-a108-41a2-8f1f-0e34f718a654",
            "assigner": {
              "identifier": {
                "system": "https://fhir.nhs.uk/Id/ods-organization-code",
                "value": "F83004"
              }
            }
          }
        ],
        "status": "unknown",
        "category": [
          {
            "coding": [
              {
                "system": "http://terminology.hl7.org/CodeSystem/observation-category",
                "code": "exam"
              }
            ]
          }
        ],
        "code": {
          "coding": [
            {
              "system": "http://read.info/readv2",
              "code": "9h31.",
              "display": "Excepted from hypertension quality indicators - patient unsuitable"
            },
            {
              "system": "http://snomed.info/sct",
              "code": "716821000000100",
              "display": "Excepted from hypertension quality indicators - patient unsuitable"
            }
          ],
          "text": "Excepted from hypertension quality indicators - patient unsuitable"
        },
        "subject": {
          "reference": "urn:uuid:b7951809-0acb-4dfa-ba90-3032869e0685",
          "type": "Patient"
        },
        "encounter": {
          "reference": "urn:uuid:ab2539ee-fd55-4abc-9898-d4c1520dd2ba",
          "identifier": {
            "system": "https://emis.com/Id/Consultation/GUID",
            "value": "ab2539ee-fd55-4abc-9898-d4c1520dd2ba",
            "assigner": {
              "identifier": {
                "system": "https://fhir.nhs.uk/Id/ods-organization-code",
                "value": "F83004"
              }
            }
          }
        },
        "effectiveDateTime": "2024-11-08T15:51:00+00:00",
        "issued": "2024-11-08T15:51:00.000+00:00",
        "performer": [
          {
            "reference": "urn:uuid:a716058c-f9d5-4537-b1e7-d021bd2185a3",
            "type": "Practitioner",
            "identifier": {
              "system": "https://fhir.hl7.org.uk/Id/professional-code",
              "value": "25825845"
            },
            "display": "Dr HealthOnline Test"
          }
        ]
      }
    },
    {
      "fullUrl": "urn:uuid:f47bd9a2-5de0-4598-be29-d45b242c18b7",
      "resource": {
        "resourceType": "Observation",
        "id": "f47bd9a2-5de0-4598-be29-d45b242c18b7",
        "identifier": [
          {
            "use": "secondary",
            "system": "https://emis.com/Id/Event/DBID",
            "value": "3290",
            "assigner": {
              "identifier": {
                "system": "https://fhir.nhs.uk/Id/ods-organization-code",
                "value": "F83004"
              }
            }
          },
          {
            "use": "usual",
            "system": "https://emis.com/Id/Event/GUID",
            "value": "f47bd9a2-5de0-4598-be29-d45b242c18b7",
            "assigner": {
              "identifier": {
                "system": "https://fhir.nhs.uk/Id/ods-organization-code",
                "value": "F83004"
              }
            }
          }
        ],
        "status": "unknown",
        "category": [
          {
            "coding": [
              {
                "system": "http://terminology.hl7.org/CodeSystem/observation-category",
                "code": "exam"
              }
            ]
          }
        ],
        "code": {
          "coding": [
            {
              "system": "http://read.info/readv2",
              "code": "9i0..",
              "display": "British or mixed British - ethnic category 2001 census"
            },
            {
              "system": "http://snomed.info/sct",
              "code": "92391000000108",
              "display": "British or mixed British - ethnic category 2001 census"
            }
          ],
          "text": "British or mixed British - ethnic category 2001 census"
        },
        "subject": {
          "reference": "urn:uuid:b7951809-0acb-4dfa-ba90-3032869e0685",
          "type": "Patient"
        },
        "encounter": {
          "reference": "urn:uuid:ab2539ee-fd55-4abc-9898-d4c1520dd2ba",
          "identifier": {
            "system": "https://emis.com/Id/Consultation/GUID",
            "value": "ab2539ee-fd55-4abc-9898-d4c1520dd2ba",
            "assigner": {
              "identifier": {
                "system": "https://fhir.nhs.uk/Id/ods-organization-code",
                "value": "F83004"
              }
            }
          }
        },
        "effectiveDateTime": "2024-11-08T15:51:00+00:00",
        "issued": "2024-11-08T15:51:00.000+00:00",
        "performer": [
          {
            "reference": "urn:uuid:a716058c-f9d5-4537-b1e7-d021bd2185a3",
            "type": "Practitioner",
            "identifier": {
              "system": "https://fhir.hl7.org.uk/Id/professional-code",
              "value": "25825845"
            },
            "display": "Dr HealthOnline Test"
          }
        ]
      }
    },
    {
      "fullUrl": "urn:uuid:77828dc0-c740-4d22-8543-be5e44036c79",
      "resource": {
        "resourceType": "Observation",
        "id": "77828dc0-c740-4d22-8543-be5e44036c79",
        "identifier": [
          {
            "use": "secondary",
            "system": "https://emis.com/Id/Event/DBID",
            "value": "3291",
            "assigner": {
              "identifier": {
                "system": "https://fhir.nhs.uk/Id/ods-organization-code",
                "value": "F83004"
              }
            }
          },
          {
            "use": "usual",
            "system": "https://emis.com/Id/Event/GUID",
            "value": "77828dc0-c740-4d22-8543-be5e44036c79",
            "assigner": {
              "identifier": {
                "system": "https://fhir.nhs.uk/Id/ods-organization-code",
                "value": "F83004"
              }
            }
          }
        ],
        "status": "unknown",
        "category": [
          {
            "coding": [
              {
                "system": "http://terminology.hl7.org/CodeSystem/observation-category",
                "code": "exam"
              }
            ]
          }
        ],
        "code": {
          "coding": [
            {
              "system": "http://read.info/readv2",
              "code": "8CA4.",
              "display": "Dietary advice"
            },
            {
              "system": "http://snomed.info/sct",
              "code": "11816003",
              "display": "Dietary advice"
            }
          ],
          "text": "Dietary advice"
        },
        "subject": {
          "reference": "urn:uuid:b7951809-0acb-4dfa-ba90-3032869e0685",
          "type": "Patient"
        },
        "encounter": {
          "reference": "urn:uuid:ab2539ee-fd55-4abc-9898-d4c1520dd2ba",
          "identifier": {
            "system": "https://emis.com/Id/Consultation/GUID",
            "value": "ab2539ee-fd55-4abc-9898-d4c1520dd2ba",
            "assigner": {
              "identifier": {
                "system": "https://fhir.nhs.uk/Id/ods-organization-code",
                "value": "F83004"
              }
            }
          }
        },
        "effectiveDateTime": "2024-11-08T15:51:00+00:00",
        "issued": "2024-11-08T15:51:00.000+00:00",
        "performer": [
          {
            "reference": "urn:uuid:a716058c-f9d5-4537-b1e7-d021bd2185a3",
            "type": "Practitioner",
            "identifier": {
              "system": "https://fhir.hl7.org.uk/Id/professional-code",
              "value": "25825845"
            },
            "display": "Dr HealthOnline Test"
          }
        ]
      }
    },
    {
      "fullUrl": "urn:uuid:5ea579ff-88c8-4265-a539-c15d0e0ba185",
      "resource": {
        "resourceType": "Observation",
        "id": "5ea579ff-88c8-4265-a539-c15d0e0ba185",
        "identifier": [
          {
            "use": "secondary",
            "system": "https://emis.com/Id/Event/DBID",
            "value": "3292",
            "assigner": {
              "identifier": {
                "system": "https://fhir.nhs.uk/Id/ods-organization-code",
                "value": "F83004"
              }
            }
          },
          {
            "use": "usual",
            "system": "https://emis.com/Id/Event/GUID",
            "value": "5ea579ff-88c8-4265-a539-c15d0e0ba185",
            "assigner": {
              "identifier": {
                "system": "https://fhir.nhs.uk/Id/ods-organization-code",
                "value": "F83004"
              }
            }
          }
        ],
        "status": "unknown",
        "category": [
          {
            "coding": [
              {
                "system": "http://terminology.hl7.org/CodeSystem/observation-category",
                "code": "exam"
              }
            ]
          }
        ],
        "code": {
          "coding": [
            {
              "system": "http://read.info/readv2",
              "code": "8CAM.",
              "display": "Education about alcohol consumption"
            },
            {
              "system": "http://snomed.info/sct",
              "code": "281078001",
              "display": "Education about alcohol consumption"
            }
          ],
          "text": "Education about alcohol consumption"
        },
        "subject": {
          "reference": "urn:uuid:b7951809-0acb-4dfa-ba90-3032869e0685",
          "type": "Patient"
        },
        "encounter": {
          "reference": "urn:uuid:ab2539ee-fd55-4abc-9898-d4c1520dd2ba",
          "identifier": {
            "system": "https://emis.com/Id/Consultation/GUID",
            "value": "ab2539ee-fd55-4abc-9898-d4c1520dd2ba",
            "assigner": {
              "identifier": {
                "system": "https://fhir.nhs.uk/Id/ods-organization-code",
                "value": "F83004"
              }
            }
          }
        },
        "effectiveDateTime": "2024-11-08T15:51:00+00:00",
        "issued": "2024-11-08T15:51:00.000+00:00",
        "performer": [
          {
            "reference": "urn:uuid:a716058c-f9d5-4537-b1e7-d021bd2185a3",
            "type": "Practitioner",
            "identifier": {
              "system": "https://fhir.hl7.org.uk/Id/professional-code",
              "value": "25825845"
            },
            "display": "Dr HealthOnline Test"
          }
        ]
      }
    },
    {
      "fullUrl": "urn:uuid:22ba9307-b02e-4424-9856-3c424b2cdfe9",
      "resource": {
        "resourceType": "Observation",
        "id": "22ba9307-b02e-4424-9856-3c424b2cdfe9",
        "identifier": [
          {
            "use": "secondary",
            "system": "https://emis.com/Id/Event/DBID",
            "value": "3293",
            "assigner": {
              "identifier": {
                "system": "https://fhir.nhs.uk/Id/ods-organization-code",
                "value": "F83004"
              }
            }
          },
          {
            "use": "usual",
            "system": "https://emis.com/Id/Event/GUID",
            "value": "22ba9307-b02e-4424-9856-3c424b2cdfe9",
            "assigner": {
              "identifier": {
                "system": "https://fhir.nhs.uk/Id/ods-organization-code",
                "value": "F83004"
              }
            }
          }
        ],
        "status": "unknown",
        "category": [
          {
            "coding": [
              {
                "system": "http://terminology.hl7.org/CodeSystem/observation-category",
                "code": "exam"
              }
            ]
          }
        ],
        "code": {
          "coding": [
            {
              "system": "http://read.info/readv2",
              "code": "3211.",
              "display": "ECG requested"
            },
            {
              "system": "http://snomed.info/sct",
              "code": "164846002",
              "display": "ECG requested"
            }
          ],
          "text": "ECG requested"
        },
        "subject": {
          "reference": "urn:uuid:b7951809-0acb-4dfa-ba90-3032869e0685",
          "type": "Patient"
        },
        "encounter": {
          "reference": "urn:uuid:ab2539ee-fd55-4abc-9898-d4c1520dd2ba",
          "identifier": {
            "system": "https://emis.com/Id/Consultation/GUID",
            "value": "ab2539ee-fd55-4abc-9898-d4c1520dd2ba",
            "assigner": {
              "identifier": {
                "system": "https://fhir.nhs.uk/Id/ods-organization-code",
                "value": "F83004"
              }
            }
          }
        },
        "effectiveDateTime": "2024-11-08T15:51:00+00:00",
        "issued": "2024-11-08T15:51:00.000+00:00",
        "performer": [
          {
            "reference": "urn:uuid:a716058c-f9d5-4537-b1e7-d021bd2185a3",
            "type": "Practitioner",
            "identifier": {
              "system": "https://fhir.hl7.org.uk/Id/professional-code",
              "value": "25825845"
            },
            "display": "Dr HealthOnline Test"
          }
        ]
      }
    },
    {
      "fullUrl": "urn:uuid:01247827-f6d8-4766-bf19-97d0cb029d1a",
      "resource": {
        "resourceType": "Observation",
        "id": "01247827-f6d8-4766-bf19-97d0cb029d1a",
        "identifier": [
          {
            "use": "secondary",
            "system": "https://emis.com/Id/Event/DBID",
            "value": "3294",
            "assigner": {
              "identifier": {
                "system": "https://fhir.nhs.uk/Id/ods-organization-code",
                "value": "F83004"
              }
            }
          },
          {
            "use": "usual",
            "system": "https://emis.com/Id/Event/GUID",
            "value": "01247827-f6d8-4766-bf19-97d0cb029d1a",
            "assigner": {
              "identifier": {
                "system": "https://fhir.nhs.uk/Id/ods-organization-code",
                "value": "F83004"
              }
            }
          }
        ],
        "status": "unknown",
        "category": [
          {
            "coding": [
              {
                "system": "http://terminology.hl7.org/CodeSystem/observation-category",
                "code": "laboratory"
              }
            ]
          }
        ],
        "code": {
          "coding": [
            {
              "system": "http://read.info/readv2",
              "code": "136..",
              "display": "Alcohol consumption"
            },
            {
              "system": "http://snomed.info/sct",
              "code": "160573003",
              "display": "Alcohol consumption"
            }
          ],
          "text": "Alcohol consumption, 0 U/week"
        },
        "subject": {
          "reference": "urn:uuid:b7951809-0acb-4dfa-ba90-3032869e0685",
          "type": "Patient"
        },
        "encounter": {
          "reference": "urn:uuid:ab2539ee-fd55-4abc-9898-d4c1520dd2ba",
          "identifier": {
            "system": "https://emis.com/Id/Consultation/GUID",
            "value": "ab2539ee-fd55-4abc-9898-d4c1520dd2ba",
            "assigner": {
              "identifier": {
                "system": "https://fhir.nhs.uk/Id/ods-organization-code",
                "value": "F83004"
              }
            }
          }
        },
        "effectiveDateTime": "2024-11-08T15:51:00+00:00",
        "issued": "2024-11-08T15:51:00.000+00:00",
        "performer": [
          {
            "reference": "urn:uuid:a716058c-f9d5-4537-b1e7-d021bd2185a3",
            "type": "Practitioner",
            "identifier": {
              "system": "https://fhir.hl7.org.uk/Id/professional-code",
              "value": "25825845"
            },
            "display": "Dr HealthOnline Test"
          }
        ],
        "valueQuantity": {
          "value": 0,
          "unit": "U/week",
          "system": "http://unitsofmeasure.org",
          "code": "U/week"
        }
      }
    },
    {
      "fullUrl": "urn:uuid:9955d4bb-51fb-41c3-9e24-182eb108dfe7",
      "resource": {
        "resourceType": "Observation",
        "id": "9955d4bb-51fb-41c3-9e24-182eb108dfe7",
        "identifier": [
          {
            "use": "secondary",
            "system": "https://emis.com/Id/Event/DBID",
            "value": "3295",
            "assigner": {
              "identifier": {
                "system": "https://fhir.nhs.uk/Id/ods-organization-code",
                "value": "F83004"
              }
            }
          },
          {
            "use": "usual",
            "system": "https://emis.com/Id/Event/GUID",
            "value": "9955d4bb-51fb-41c3-9e24-182eb108dfe7",
            "assigner": {
              "identifier": {
                "system": "https://fhir.nhs.uk/Id/ods-organization-code",
                "value": "F83004"
              }
            }
          }
        ],
        "status": "unknown",
        "category": [
          {
            "coding": [
              {
                "system": "http://terminology.hl7.org/CodeSystem/observation-category",
                "code": "laboratory"
              }
            ]
          }
        ],
        "code": {
          "coding": [
            {
              "system": "http://read.info/readv2",
              "code": "44P..",
              "display": "Serum cholesterol level"
            },
            {
              "system": "http://snomed.info/sct",
              "code": "1005671000000105",
              "display": "Serum cholesterol level"
            }
          ],
          "text": "Serum cholesterol level, 123 mmol/L"
        },
        "subject": {
          "reference": "urn:uuid:b7951809-0acb-4dfa-ba90-3032869e0685",
          "type": "Patient"
        },
        "encounter": {
          "reference": "urn:uuid:ab2539ee-fd55-4abc-9898-d4c1520dd2ba",
          "identifier": {
            "system": "https://emis.com/Id/Consultation/GUID",
            "value": "ab2539ee-fd55-4abc-9898-d4c1520dd2ba",
            "assigner": {
              "identifier": {
                "system": "https://fhir.nhs.uk/Id/ods-organization-code",
                "value": "F83004"
              }
            }
          }
        },
        "effectiveDateTime": "2024-11-08T15:51:00+00:00",
        "issued": "2024-11-08T15:51:00.000+00:00",
        "performer": [
          {
            "reference": "urn:uuid:a716058c-f9d5-4537-b1e7-d021bd2185a3",
            "type": "Practitioner",
            "identifier": {
              "system": "https://fhir.hl7.org.uk/Id/professional-code",
              "value": "25825845"
            },
            "display": "Dr HealthOnline Test"
          }
        ],
        "valueQuantity": {
          "value": 123,
          "unit": "mmol/L",
          "system": "http://unitsofmeasure.org",
          "code": "mmol/L"
        }
      }
    },
    {
      "fullUrl": "urn:uuid:02bb3059-6ff1-48af-a4ec-27afb78ef59d",
      "resource": {
        "resourceType": "Observation",
        "id": "02bb3059-6ff1-48af-a4ec-27afb78ef59d",
        "identifier": [
          {
            "use": "secondary",
            "system": "https://emis.com/Id/Event/DBID",
            "value": "3296",
            "assigner": {
              "identifier": {
                "system": "https://fhir.nhs.uk/Id/ods-organization-code",
                "value": "F83004"
              }
            }
          },
          {
            "use": "usual",
            "system": "https://emis.com/Id/Event/GUID",
            "value": "02bb3059-6ff1-48af-a4ec-27afb78ef59d",
            "assigner": {
              "identifier": {
                "system": "https://fhir.nhs.uk/Id/ods-organization-code",
                "value": "F83004"
              }
            }
          }
        ],
        "status": "unknown",
        "category": [
          {
            "coding": [
              {
                "system": "http://terminology.hl7.org/CodeSystem/observation-category",
                "code": "laboratory"
              }
            ]
          }
        ],
        "code": {
          "coding": [
            {
              "system": "http://read.info/readv2",
              "code": "44P5.",
              "display": "Serum high density lipoprotein cholesterol level"
            },
            {
              "system": "http://snomed.info/sct",
              "code": "1005681000000107",
              "display": "Serum high density lipoprotein cholesterol level"
            }
          ],
          "text": "Serum high density lipoprotein cholesterol level, 234 mmol/L"
        },
        "subject": {
          "reference": "urn:uuid:b7951809-0acb-4dfa-ba90-3032869e0685",
          "type": "Patient"
        },
        "encounter": {
          "reference": "urn:uuid:ab2539ee-fd55-4abc-9898-d4c1520dd2ba",
          "identifier": {
            "system": "https://emis.com/Id/Consultation/GUID",
            "value": "ab2539ee-fd55-4abc-9898-d4c1520dd2ba",
            "assigner": {
              "identifier": {
                "system": "https://fhir.nhs.uk/Id/ods-organization-code",
                "value": "F83004"
              }
            }
          }
        },
        "effectiveDateTime": "2024-11-08T15:51:00+00:00",
        "issued": "2024-11-08T15:51:00.000+00:00",
        "performer": [
          {
            "reference": "urn:uuid:a716058c-f9d5-4537-b1e7-d021bd2185a3",
            "type": "Practitioner",
            "identifier": {
              "system": "https://fhir.hl7.org.uk/Id/professional-code",
              "value": "25825845"
            },
            "display": "Dr HealthOnline Test"
          }
        ],
        "valueQuantity": {
          "value": 234,
          "unit": "mmol/L",
          "system": "http://unitsofmeasure.org",
          "code": "mmol/L"
        }
      }
    },
    {
      "fullUrl": "urn:uuid:44fa1523-ffef-4d71-ba05-4a38f629b02e",
      "resource": {
        "resourceType": "Observation",
        "id": "44fa1523-ffef-4d71-ba05-4a38f629b02e",
        "identifier": [
          {
            "use": "secondary",
            "system": "https://emis.com/Id/Event/DBID",
            "value": "3297",
            "assigner": {
              "identifier": {
                "system": "https://fhir.nhs.uk/Id/ods-organization-code",
                "value": "F83004"
              }
            }
          },
          {
            "use": "usual",
            "system": "https://emis.com/Id/Event/GUID",
            "value": "44fa1523-ffef-4d71-ba05-4a38f629b02e",
            "assigner": {
              "identifier": {
                "system": "https://fhir.nhs.uk/Id/ods-organization-code",
                "value": "F83004"
              }
            }
          }
        ],
        "status": "unknown",
        "category": [
          {
            "coding": [
              {
                "system": "http://terminology.hl7.org/CodeSystem/observation-category",
                "code": "laboratory"
              }
            ]
          }
        ],
        "code": {
          "coding": [
            {
              "system": "http://read.info/readv2",
              "code": "44J3.",
              "display": "Serum creatinine level"
            },
            {
              "system": "http://snomed.info/sct",
              "code": "1000731000000107",
              "display": "Serum creatinine level"
            }
          ],
          "text": "Serum creatinine level, 123 umol/L"
        },
        "subject": {
          "reference": "urn:uuid:b7951809-0acb-4dfa-ba90-3032869e0685",
          "type": "Patient"
        },
        "encounter": {
          "reference": "urn:uuid:ab2539ee-fd55-4abc-9898-d4c1520dd2ba",
          "identifier": {
            "system": "https://emis.com/Id/Consultation/GUID",
            "value": "ab2539ee-fd55-4abc-9898-d4c1520dd2ba",
            "assigner": {
              "identifier": {
                "system": "https://fhir.nhs.uk/Id/ods-organization-code",
                "value": "F83004"
              }
            }
          }
        },
        "effectiveDateTime": "2024-11-08T15:51:00+00:00",
        "issued": "2024-11-08T15:51:00.000+00:00",
        "performer": [
          {
            "reference": "urn:uuid:a716058c-f9d5-4537-b1e7-d021bd2185a3",
            "type": "Practitioner",
            "identifier": {
              "system": "https://fhir.hl7.org.uk/Id/professional-code",
              "value": "25825845"
            },
            "display": "Dr HealthOnline Test"
          }
        ],
        "valueQuantity": {
          "value": 123,
          "unit": "umol/L",
          "system": "http://unitsofmeasure.org",
          "code": "umol/L"
        }
      }
    },
    {
      "fullUrl": "urn:uuid:39e7a63a-4f09-4ad9-a2a0-66ad94a77851",
      "resource": {
        "resourceType": "Observation",
        "id": "39e7a63a-4f09-4ad9-a2a0-66ad94a77851",
        "identifier": [
          {
            "use": "secondary",
            "system": "https://emis.com/Id/Event/DBID",
            "value": "3151",
            "assigner": {
              "identifier": {
                "system": "https://fhir.nhs.uk/Id/ods-organization-code",
                "value": "F83004"
              }
            }
          },
          {
            "use": "usual",
            "system": "https://emis.com/Id/Event/GUID",
            "value": "39e7a63a-4f09-4ad9-a2a0-66ad94a77851",
            "assigner": {
              "identifier": {
                "system": "https://fhir.nhs.uk/Id/ods-organization-code",
                "value": "F83004"
              }
            }
          }
        ],
        "status": "unknown",
        "category": [
          {
            "coding": [
              {
                "system": "http://terminology.hl7.org/CodeSystem/observation-category",
                "code": "exam"
              }
            ]
          }
        ],
        "code": {
          "coding": [
            {
              "system": "http://read.info/readv2",
              "code": "EMISREQ|424..",
              "display": "Test request : Full Blood Count"
            },
            {
              "system": "http://snomed.info/sct",
              "code": "109841000006101",
              "display": "Test request : Full Blood Count"
            }
          ],
          "text": "Test request : Full Blood Count"
        },
        "subject": {
          "reference": "urn:uuid:b7951809-0acb-4dfa-ba90-3032869e0685",
          "type": "Patient"
        },
        "encounter": {
          "reference": "urn:uuid:ab2539ee-fd55-4abc-9898-d4c1520dd2ba",
          "identifier": {
            "system": "https://emis.com/Id/Consultation/GUID",
            "value": "ab2539ee-fd55-4abc-9898-d4c1520dd2ba",
            "assigner": {
              "identifier": {
                "system": "https://fhir.nhs.uk/Id/ods-organization-code",
                "value": "F83004"
              }
            }
          }
        },
        "effectiveDateTime": "2024-11-08T15:51:00+00:00",
        "issued": "2024-11-08T15:51:00.000+00:00",
        "performer": [
          {
            "reference": "urn:uuid:a716058c-f9d5-4537-b1e7-d021bd2185a3",
            "type": "Practitioner",
            "identifier": {
              "system": "https://fhir.hl7.org.uk/Id/professional-code",
              "value": "25825845"
            },
            "display": "Dr HealthOnline Test"
          }
        ]
      }
    },
    {
      "fullUrl": "urn:uuid:2715a9e3-7c06-4925-ae4a-0b11e5b8e987",
      "resource": {
        "resourceType": "Observation",
        "id": "2715a9e3-7c06-4925-ae4a-0b11e5b8e987",
        "identifier": [
          {
            "use": "secondary",
            "system": "https://emis.com/Id/Event/DBID",
            "value": "3153",
            "assigner": {
              "identifier": {
                "system": "https://fhir.nhs.uk/Id/ods-organization-code",
                "value": "F83004"
              }
            }
          },
          {
            "use": "usual",
            "system": "https://emis.com/Id/Event/GUID",
            "value": "2715a9e3-7c06-4925-ae4a-0b11e5b8e987",
            "assigner": {
              "identifier": {
                "system": "https://fhir.nhs.uk/Id/ods-organization-code",
                "value": "F83004"
              }
            }
          }
        ],
        "status": "unknown",
        "category": [
          {
            "coding": [
              {
                "system": "http://terminology.hl7.org/CodeSystem/observation-category",
                "code": "exam"
              }
            ]
          }
        ],
        "code": {
          "coding": [
            {
              "system": "http://read.info/readv2",
              "code": "EMISREQ|42B..",
              "display": "Test request : Plasma Viscosity"
            },
            {
              "system": "http://snomed.info/sct",
              "code": "110021000006108",
              "display": "Test request : Plasma Viscosity"
            }
          ],
          "text": "Test request : Plasma Viscosity"
        },
        "subject": {
          "reference": "urn:uuid:b7951809-0acb-4dfa-ba90-3032869e0685",
          "type": "Patient"
        },
        "encounter": {
          "reference": "urn:uuid:ab2539ee-fd55-4abc-9898-d4c1520dd2ba",
          "identifier": {
            "system": "https://emis.com/Id/Consultation/GUID",
            "value": "ab2539ee-fd55-4abc-9898-d4c1520dd2ba",
            "assigner": {
              "identifier": {
                "system": "https://fhir.nhs.uk/Id/ods-organization-code",
                "value": "F83004"
              }
            }
          }
        },
        "effectiveDateTime": "2024-11-08T15:51:00+00:00",
        "issued": "2024-11-08T15:51:00.000+00:00",
        "performer": [
          {
            "reference": "urn:uuid:a716058c-f9d5-4537-b1e7-d021bd2185a3",
            "type": "Practitioner",
            "identifier": {
              "system": "https://fhir.hl7.org.uk/Id/professional-code",
              "value": "25825845"
            },
            "display": "Dr HealthOnline Test"
          }
        ]
      }
    },
    {
      "fullUrl": "urn:uuid:c59dee86-4d6e-40e0-ad1e-e7959075e753",
      "resource": {
        "resourceType": "Observation",
        "id": "c59dee86-4d6e-40e0-ad1e-e7959075e753",
        "identifier": [
          {
            "use": "secondary",
            "system": "https://emis.com/Id/Event/DBID",
            "value": "3154",
            "assigner": {
              "identifier": {
                "system": "https://fhir.nhs.uk/Id/ods-organization-code",
                "value": "F83004"
              }
            }
          },
          {
            "use": "usual",
            "system": "https://emis.com/Id/Event/GUID",
            "value": "c59dee86-4d6e-40e0-ad1e-e7959075e753",
            "assigner": {
              "identifier": {
                "system": "https://fhir.nhs.uk/Id/ods-organization-code",
                "value": "F83004"
              }
            }
          }
        ],
        "status": "unknown",
        "category": [
          {
            "coding": [
              {
                "system": "http://terminology.hl7.org/CodeSystem/observation-category",
                "code": "exam"
              }
            ]
          }
        ],
        "code": {
          "coding": [
            {
              "system": "http://read.info/readv2",
              "code": "EMISREQ|62L..",
              "display": "Test request : Antenatal"
            },
            {
              "system": "http://snomed.info/sct",
              "code": "109661000006103",
              "display": "Test request : Antenatal"
            }
          ],
          "text": "Test request : Antenatal"
        },
        "subject": {
          "reference": "urn:uuid:b7951809-0acb-4dfa-ba90-3032869e0685",
          "type": "Patient"
        },
        "encounter": {
          "reference": "urn:uuid:ab2539ee-fd55-4abc-9898-d4c1520dd2ba",
          "identifier": {
            "system": "https://emis.com/Id/Consultation/GUID",
            "value": "ab2539ee-fd55-4abc-9898-d4c1520dd2ba",
            "assigner": {
              "identifier": {
                "system": "https://fhir.nhs.uk/Id/ods-organization-code",
                "value": "F83004"
              }
            }
          }
        },
        "effectiveDateTime": "2024-11-08T15:51:00+00:00",
        "issued": "2024-11-08T15:51:00.000+00:00",
        "performer": [
          {
            "reference": "urn:uuid:a716058c-f9d5-4537-b1e7-d021bd2185a3",
            "type": "Practitioner",
            "identifier": {
              "system": "https://fhir.hl7.org.uk/Id/professional-code",
              "value": "25825845"
            },
            "display": "Dr HealthOnline Test"
          }
        ]
      }
    },
    {
      "fullUrl": "urn:uuid:107b410c-384c-4c0f-b5f5-def84619d40f",
      "resource": {
        "resourceType": "Observation",
        "id": "107b410c-384c-4c0f-b5f5-def84619d40f",
        "identifier": [
          {
            "use": "secondary",
            "system": "https://emis.com/Id/Event/DBID",
            "value": "3155",
            "assigner": {
              "identifier": {
                "system": "https://fhir.nhs.uk/Id/ods-organization-code",
                "value": "F83004"
              }
            }
          },
          {
            "use": "usual",
            "system": "https://emis.com/Id/Event/GUID",
            "value": "107b410c-384c-4c0f-b5f5-def84619d40f",
            "assigner": {
              "identifier": {
                "system": "https://fhir.nhs.uk/Id/ods-organization-code",
                "value": "F83004"
              }
            }
          }
        ],
        "status": "unknown",
        "category": [
          {
            "coding": [
              {
                "system": "http://terminology.hl7.org/CodeSystem/observation-category",
                "code": "vital-signs"
              }
            ]
          }
        ],
        "code": {
          "coding": [
            {
              "system": "http://read.info/readv2",
              "code": "2469.",
              "display": "Systolic arterial pressure"
            },
            {
              "system": "http://snomed.info/sct",
              "code": "72313002",
              "display": "Systolic arterial pressure"
            }
          ],
          "text": "Systolic arterial pressure, 117 mmHg"
        },
        "subject": {
          "reference": "urn:uuid:b7951809-0acb-4dfa-ba90-3032869e0685",
          "type": "Patient"
        },
        "encounter": {
          "reference": "urn:uuid:ab2539ee-fd55-4abc-9898-d4c1520dd2ba",
          "identifier": {
            "system": "https://emis.com/Id/Consultation/GUID",
            "value": "ab2539ee-fd55-4abc-9898-d4c1520dd2ba",
            "assigner": {
              "identifier": {
                "system": "https://fhir.nhs.uk/Id/ods-organization-code",
                "value": "F83004"
              }
            }
          }
        },
        "effectiveDateTime": "2024-11-08T15:51:00+00:00",
        "issued": "2024-11-08T15:51:00.000+00:00",
        "performer": [
          {
            "reference": "urn:uuid:a716058c-f9d5-4537-b1e7-d021bd2185a3",
            "type": "Practitioner",
            "identifier": {
              "system": "https://fhir.hl7.org.uk/Id/professional-code",
              "value": "25825845"
            },
            "display": "Dr HealthOnline Test"
          }
        ],
        "valueQuantity": {
          "value": 117,
          "unit": "mmHg",
          "system": "http://unitsofmeasure.org",
          "code": "mm[Hg]"
        }
      }
    },
    {
      "fullUrl": "urn:uuid:82c1918b-6466-47b7-b940-a5e5f4d84c8b",
      "resource": {
        "resourceType": "Observation",
        "id": "82c1918b-6466-47b7-b940-a5e5f4d84c8b",
        "identifier": [
          {
            "use": "secondary",
            "system": "https://emis.com/Id/Event/DBID",
            "value": "3156",
            "assigner": {
              "identifier": {
                "system": "https://fhir.nhs.uk/Id/ods-organization-code",
                "value": "F83004"
              }
            }
          },
          {
            "use": "usual",
            "system": "https://emis.com/Id/Event/GUID",
            "value": "82c1918b-6466-47b7-b940-a5e5f4d84c8b",
            "assigner": {
              "identifier": {
                "system": "https://fhir.nhs.uk/Id/ods-organization-code",
                "value": "F83004"
              }
            }
          }
        ],
        "status": "unknown",
        "category": [
          {
            "coding": [
              {
                "system": "http://terminology.hl7.org/CodeSystem/observation-category",
                "code": "vital-signs"
              }
            ]
          }
        ],
        "code": {
          "coding": [
            {
              "system": "http://read.info/readv2",
              "code": "246A.",
              "display": "Diastolic arterial pressure"
            },
            {
              "system": "http://snomed.info/sct",
              "code": "1091811000000102",
              "display": "Diastolic arterial pressure"
            }
          ],
          "text": "Diastolic arterial pressure, 75 mmHg"
        },
        "subject": {
          "reference": "urn:uuid:b7951809-0acb-4dfa-ba90-3032869e0685",
          "type": "Patient"
        },
        "encounter": {
          "reference": "urn:uuid:ab2539ee-fd55-4abc-9898-d4c1520dd2ba",
          "identifier": {
            "system": "https://emis.com/Id/Consultation/GUID",
            "value": "ab2539ee-fd55-4abc-9898-d4c1520dd2ba",
            "assigner": {
              "identifier": {
                "system": "https://fhir.nhs.uk/Id/ods-organization-code",
                "value": "F83004"
              }
            }
          }
        },
        "effectiveDateTime": "2024-11-08T15:51:00+00:00",
        "issued": "2024-11-08T15:51:00.000+00:00",
        "performer": [
          {
            "reference": "urn:uuid:a716058c-f9d5-4537-b1e7-d021bd2185a3",
            "type": "Practitioner",
            "identifier": {
              "system": "https://fhir.hl7.org.uk/Id/professional-code",
              "value": "25825845"
            },
            "display": "Dr HealthOnline Test"
          }
        ],
        "valueQuantity": {
          "value": 75,
          "unit": "mmHg",
          "system": "http://unitsofmeasure.org",
          "code": "mm[Hg]"
        }
      }
    },
    {
      "fullUrl": "urn:uuid:8550789d-1fad-470c-b2e7-04fca63f53af",
      "resource": {
        "resourceType": "Practitioner",
        "id": "8550789d-1fad-470c-b2e7-04fca63f53af",
        "extension": [
          {
            "url": "http://fhir.virtuallyhealthcare.co.uk/Role",
            "extension": [
              {
                "url": "url",
                "valueReference": {
                  "reference": "Location/4882"
                }
              },
              {
                "url": "role",
                "valueInteger": 20
              }
            ]
          }
        ],
        "identifier": [
          {
            "use": "old",
            "type": {
              "coding": [
                {
                  "system": "http://terminology.hl7.org/CodeSystem/v2-0203",
                  "code": "PN"
                }
              ]
            },
            "system": "https://emis.com/Id/Practitioner/DBID",
            "value": "5",
            "assigner": {
              "identifier": {
                "system": "https://fhir.nhs.uk/Id/ods-organization-code",
                "value": "F83004"
              }
            }
          },
          {
            "use": "old",
            "system": "https://emis.com/Id/Practitioner/REFID",
            "value": "5"
          },
          {
            "use": "usual",
            "type": {
              "coding": [
                {
                  "system": "http://terminology.hl7.org/CodeSystem/v2-0203",
                  "code": "ESN"
                }
              ]
            },
            "system": "https://emis.com/Id/Practitioner/GUID",
            "value": "8550789d-1fad-470c-b2e7-04fca63f53af"
          }
        ],
        "active": true,
        "name": [
          {
            "family": "Bradshaw",
            "given": [
              "Eileen"
            ],
            "prefix": [
              "Mrs"
            ]
          }
        ]
      }
    },
    {
      "fullUrl": "urn:uuid:f0b26662-5519-4020-9fc9-35774eb1e826",
      "resource": {
        "resourceType": "Practitioner",
        "id": "f0b26662-5519-4020-9fc9-35774eb1e826",
        "extension": [
          {
            "url": "http://fhir.virtuallyhealthcare.co.uk/Role",
            "extension": [
              {
                "url": "url",
                "valueReference": {
                  "reference": "Location/4882"
                }
              },
              {
                "url": "role",
                "valueInteger": 14
              }
            ]
          }
        ],
        "identifier": [
          {
            "use": "old",
            "type": {
              "coding": [
                {
                  "system": "http://terminology.hl7.org/CodeSystem/v2-0203",
                  "code": "PN"
                }
              ]
            },
            "system": "https://emis.com/Id/Practitioner/DBID",
            "value": "6",
            "assigner": {
              "identifier": {
                "system": "https://fhir.nhs.uk/Id/ods-organization-code",
                "value": "F83004"
              }
            }
          },
          {
            "use": "old",
            "system": "https://emis.com/Id/Practitioner/REFID",
            "value": "6"
          },
          {
            "use": "usual",
            "type": {
              "coding": [
                {
                  "system": "http://terminology.hl7.org/CodeSystem/v2-0203",
                  "code": "ESN"
                }
              ]
            },
            "system": "https://emis.com/Id/Practitioner/GUID",
            "value": "f0b26662-5519-4020-9fc9-35774eb1e826"
          },
          {
            "use": "official",
            "type": {
              "coding": [
                {
                  "system": "http://terminology.hl7.org/CodeSystem/v2-0203",
                  "code": "LN"
                }
              ]
            },
            "system": "https://fhir.hl7.org.uk/Id/gmp-number",
            "value": "G9380513"
          }
        ],
        "active": true,
        "name": [
          {
            "family": "Potter",
            "given": [
              "Ann"
            ],
            "prefix": [
              "Mrs"
            ]
          }
        ]
      }
    },
    {
      "fullUrl": "urn:uuid:9f3c10ea-b781-4e9e-a0fa-af68bcb49cf2",
      "resource": {
        "resourceType": "Practitioner",
        "id": "9f3c10ea-b781-4e9e-a0fa-af68bcb49cf2",
        "identifier": [
          {
            "system": "https://fhir.hl7.org.uk/Id/gmp-number",
            "value": "G8667998"
          }
        ],
        "name": [
          {
            "text": "Mrs Jean Mitchell"
          }
        ]
      }
    },
    {
      "fullUrl": "urn:uuid:812af0ad-e71e-41e2-997a-b6787f934928",
      "resource": {
        "resourceType": "Practitioner",
        "id": "812af0ad-e71e-41e2-997a-b6787f934928",
        "extension": [
          {
            "url": "http://fhir.virtuallyhealthcare.co.uk/Role",
            "extension": [
              {
                "url": "url",
                "valueReference": {
                  "reference": "Location/4882"
                }
              },
              {
                "url": "role",
                "valueInteger": 10
              }
            ]
          }
        ],
        "identifier": [
          {
            "use": "old",
            "type": {
              "coding": [
                {
                  "system": "http://terminology.hl7.org/CodeSystem/v2-0203",
                  "code": "PN"
                }
              ]
            },
            "system": "https://emis.com/Id/Practitioner/DBID",
            "value": "9",
            "assigner": {
              "identifier": {
                "system": "https://fhir.nhs.uk/Id/ods-organization-code",
                "value": "F83004"
              }
            }
          },
          {
            "use": "old",
            "system": "https://emis.com/Id/Practitioner/REFID",
            "value": "9"
          },
          {
            "use": "usual",
            "type": {
              "coding": [
                {
                  "system": "http://terminology.hl7.org/CodeSystem/v2-0203",
                  "code": "ESN"
                }
              ]
            },
            "system": "https://emis.com/Id/Practitioner/GUID",
            "value": "812af0ad-e71e-41e2-997a-b6787f934928"
          },
          {
            "use": "official",
            "type": {
              "coding": [
                {
                  "system": "http://terminology.hl7.org/CodeSystem/v2-0203",
                  "code": "LN"
                }
              ]
            },
            "system": "https://fhir.hl7.org.uk/Id/gmp-number",
            "value": "G3031757"
          },
          {
            "use": "secondary",
            "system": "https://fhir.nhs.uk/Id/gmc-reference-number",
            "value": "4744203"
          }
        ],
        "active": true,
        "name": [
          {
            "family": "Burgess",
            "given": [
              "Neil"
            ],
            "prefix": [
              "Dr"
            ]
          }
        ]
      }
    },
    {
      "fullUrl": "urn:uuid:3125f0c4-c773-48a6-bf33-10a5106f6448",
      "resource": {
        "resourceType": "Practitioner",
        "id": "3125f0c4-c773-48a6-bf33-10a5106f6448",
        "extension": [
          {
            "url": "http://fhir.virtuallyhealthcare.co.uk/Role",
            "extension": [
              {
                "url": "url",
                "valueReference": {
                  "reference": "Location/4882"
                }
              },
              {
                "url": "role",
                "valueInteger": 10
              }
            ]
          }
        ],
        "identifier": [
          {
            "use": "old",
            "type": {
              "coding": [
                {
                  "system": "http://terminology.hl7.org/CodeSystem/v2-0203",
                  "code": "PN"
                }
              ]
            },
            "system": "https://emis.com/Id/Practitioner/DBID",
            "value": "12",
            "assigner": {
              "identifier": {
                "system": "https://fhir.nhs.uk/Id/ods-organization-code",
                "value": "F83004"
              }
            }
          },
          {
            "use": "old",
            "system": "https://emis.com/Id/Practitioner/REFID",
            "value": "12"
          },
          {
            "use": "usual",
            "type": {
              "coding": [
                {
                  "system": "http://terminology.hl7.org/CodeSystem/v2-0203",
                  "code": "ESN"
                }
              ]
            },
            "system": "https://emis.com/Id/Practitioner/GUID",
            "value": "3125f0c4-c773-48a6-bf33-10a5106f6448"
          },
          {
            "use": "official",
            "type": {
              "coding": [
                {
                  "system": "http://terminology.hl7.org/CodeSystem/v2-0203",
                  "code": "LN"
                }
              ]
            },
            "system": "https://fhir.hl7.org.uk/Id/gmp-number",
            "value": "G3371701"
          },
          {
            "use": "secondary",
            "system": "https://fhir.nhs.uk/Id/gmc-reference-number",
            "value": "7041831"
          }
        ],
        "active": true,
        "name": [
          {
            "family": "Harding",
            "given": [
              "Brian"
            ],
            "prefix": [
              "Dr"
            ]
          }
        ]
      }
    },
    {
      "fullUrl": "urn:uuid:68ea3bc3-b908-431f-8019-599b654eb279",
      "resource": {
        "resourceType": "Practitioner",
        "id": "68ea3bc3-b908-431f-8019-599b654eb279",
        "identifier": [
          {
            "system": "https://fhir.hl7.org.uk/Id/gmp-number",
            "value": "G2215996"
          }
        ],
        "name": [
          {
            "text": "Dr Sarah Whitehead"
          }
        ]
      }
    },
    {
      "fullUrl": "urn:uuid:4435f523-44ae-4cfb-903d-570b2887812c",
      "resource": {
        "resourceType": "Practitioner",
        "id": "4435f523-44ae-4cfb-903d-570b2887812c",
        "extension": [
          {
            "url": "http://fhir.virtuallyhealthcare.co.uk/Role",
            "extension": [
              {
                "url": "url",
                "valueReference": {
                  "reference": "Location/4882"
                }
              },
              {
                "url": "role",
                "valueInteger": 28
              }
            ]
          }
        ],
        "identifier": [
          {
            "use": "old",
            "type": {
              "coding": [
                {
                  "system": "http://terminology.hl7.org/CodeSystem/v2-0203",
                  "code": "PN"
                }
              ]
            },
            "system": "https://emis.com/Id/Practitioner/DBID",
            "value": "7",
            "assigner": {
              "identifier": {
                "system": "https://fhir.nhs.uk/Id/ods-organization-code",
                "value": "F83004"
              }
            }
          },
          {
            "use": "old",
            "system": "https://emis.com/Id/Practitioner/REFID",
            "value": "7"
          },
          {
            "use": "usual",
            "type": {
              "coding": [
                {
                  "system": "http://terminology.hl7.org/CodeSystem/v2-0203",
                  "code": "ESN"
                }
              ]
            },
            "system": "https://emis.com/Id/Practitioner/GUID",
            "value": "4435f523-44ae-4cfb-903d-570b2887812c"
          },
          {
            "use": "official",
            "type": {
              "coding": [
                {
                  "system": "http://terminology.hl7.org/CodeSystem/v2-0203",
                  "code": "LN"
                }
              ]
            },
            "system": "https://fhir.hl7.org.uk/Id/gmp-number",
            "value": "G3226482"
          }
        ],
        "active": true,
        "name": [
          {
            "family": "Kemp",
            "given": [
              "Jean"
            ],
            "prefix": [
              "Mrs"
            ]
          }
        ]
      }
    },
    {
      "fullUrl": "urn:uuid:a716058c-f9d5-4537-b1e7-d021bd2185a3",
      "resource": {
        "resourceType": "Practitioner",
        "id": "a716058c-f9d5-4537-b1e7-d021bd2185a3",
        "extension": [
          {
            "url": "http://fhir.virtuallyhealthcare.co.uk/Role",
            "extension": [
              {
                "url": "url",
                "valueReference": {
                  "reference": "Location/4882"
                }
              },
              {
                "url": "role",
                "valueInteger": 10
              }
            ]
          }
        ],
        "identifier": [
          {
            "use": "old",
            "type": {
              "coding": [
                {
                  "system": "http://terminology.hl7.org/CodeSystem/v2-0203",
                  "code": "PN"
                }
              ]
            },
            "system": "https://emis.com/Id/Practitioner/DBID",
            "value": "4602",
            "assigner": {
              "identifier": {
                "system": "https://fhir.nhs.uk/Id/ods-organization-code",
                "value": "F83004"
              }
            }
          },
          {
            "use": "old",
            "system": "https://emis.com/Id/Practitioner/REFID",
            "value": "4602"
          },
          {
            "use": "usual",
            "type": {
              "coding": [
                {
                  "system": "http://terminology.hl7.org/CodeSystem/v2-0203",
                  "code": "ESN"
                }
              ]
            },
            "system": "https://emis.com/Id/Practitioner/GUID",
            "value": "a716058c-f9d5-4537-b1e7-d021bd2185a3"
          },
          {
            "system": "https://fhir.hl7.org.uk/Id/professional-code",
            "value": "25825845"
          },
          {
            "use": "secondary",
            "system": "https://fhir.nhs.uk/Id/gmc-reference-number",
            "value": "2582587"
          }
        ],
        "active": true,
        "name": [
          {
            "family": "Test",
            "given": [
              "HealthOnline"
            ],
            "prefix": [
              "Dr"
            ]
          }
        ]
      }
    },
    {
      "fullUrl": "urn:uuid:ab2539ee-fd55-4abc-9898-d4c1520dd2ba",
      "resource": {
        "resourceType": "Encounter",
        "id": "ab2539ee-fd55-4abc-9898-d4c1520dd2ba",
        "status": "finished",
        "class": {
          "system": "http://terminology.hl7.org/CodeSystem/v3-ActCode",
          "code": "AMB"
        },
        "type": [
          {
            "coding": [
              {
                "system": "https://emis.com/Id/LocationType/GUID",
                "code": "357efd4f-7912-de6e-13b8-d3faced28522"
              }
            ]
          }
        ],
        "subject": {
          "reference": "urn:uuid:b7951809-0acb-4dfa-ba90-3032869e0685",
          "type": "Patient"
        },
        "participant": [
          {
            "individual": {
              "reference": "urn:uuid:a716058c-f9d5-4537-b1e7-d021bd2185a3",
              "type": "Practitioner",
              "identifier": {
                "system": "https://fhir.hl7.org.uk/Id/professional-code",
                "value": "25825845"
              },
              "display": "Dr HealthOnline Test"
            }
          }
        ],
        "location": [
          {
            "location": {
              "identifier": {
                "system": "https://emis.com/Id/Location/GUID",
                "value": "37088c97-82fc-4b3e-bdbc-28f2c03b6cb8"
              },
              "display": "Main Building"
            }
          }
        ]
      }
    }
  ]
}
