{
  "resourceType": "Bundle",
  "id": "61061",
  "meta": {
    "profile" : [
      "https://fhir.virtually.healthcare/StructureDefinition/Bundle-Document"
    ]
  },
  "identifier": {
    "use": "usual",
    "system": "https://emis.com/Id/Consultation/GUID",
    "value": "e119d231-def6-43a7-af40-56d7754977bd",
    "assigner": {
      "identifier": {
        "system": "https://fhir.nhs.uk/Id/ods-organization-code",
        "value": "F83004"
      }
    }
  },
  "type": "document",
  "timestamp": "2002-06-30T00:00:00.000+00:00",
  "entry": [
    {
      "fullUrl": "urn:uuid:e119d231-def6-43a7-af40-56d7754977bd",
      "resource": {
        "resourceType": "Composition",
        "id": "61061",
        "extension": [
          {
            "url": "http://fhir.virtuallyhealthcare.co.uk/LocationType",
            "valueString": "d5753427-76ec-48e8-ab19-7f3308d5ca3d"
          }
        ],
        "identifier": {
          "use": "usual",
          "system": "https://emis.com/Id/Consultation/GUID",
          "value": "e119d231-def6-43a7-af40-56d7754977bd",
          "assigner": {
            "identifier": {
              "system": "https://fhir.nhs.uk/Id/ods-organization-code",
              "value": "F83004"
            }
          }
        },
        "status": "final",
        "type": {
          "coding": [
            {
              "system": "http://snomed.info/sct",
              "code": "823651000000106",
              "display": "Clinical note"
            }
          ]
        },
        "subject": {
          "reference": "urn:uuid:72e953f4-842e-4837-96f6-1c21827bbd17",
          "type": "Patient"
        },
        "date": "2002-06-30T00:00:00+00:00",
        "author": [
          {
            "reference": "urn:uuid:9f3c10ea-b781-4e9e-a0fa-af68bcb49cf2",
            "type": "Practitioner",
            "identifier": {
              "system": "https://fhir.hl7.org.uk/Id/gmp-number",
              "value": "G8667998"
            },
            "display": "Mrs Jean Mitchell"
          }
        ],
        "title": "Clinical note",
        "section": [
          {
            "title": "History",
            "code": {
              "coding": [
                {
                  "system": "https://emis.com/Id/SectionHeader",
                  "code": "History",
                  "display": "History"
                },
                {
                  "system": "http://snomed.info/sct",
                  "code": "717121000000105",
                  "display": "History"
                }
              ],
              "text": "History"
            },
            "text": {
              "status": "generated",
              "div": "<div xmlns=\"http://www.w3.org/1999/xhtml\"><p>Breathless - mild exertion</p></div>"
            },
            "entry": [
              {
                "reference": "urn:uuid:b08cd0b8-048b-4dca-9e43-02cdd4ddc3de",
                "type": "Observation",
                "display": "Breathless - mild exertion"
              }
            ]
          },
          {
            "title": "Examination",
            "code": {
              "coding": [
                {
                  "system": "https://emis.com/Id/SectionHeader",
                  "code": "Examination",
                  "display": "Examination"
                },
                {
                  "system": "http://snomed.info/sct",
                  "code": "715851000000102",
                  "display": "Examination findings"
                }
              ],
              "text": "Examination"
            },
            "text": {
              "status": "generated",
              "div": "<div xmlns=\"http://www.w3.org/1999/xhtml\"><p>O/E - weight, 70 Kg</p></div>"
            },
            "entry": [
              {
                "reference": "urn:uuid:609ba048-2eca-43c9-b4a1-85fa695c572c",
                "type": "Observation",
                "display": "O/E - weight, 70 Kg"
              }
            ]
          },
          {
            "title": "Social",
            "code": {
              "coding": [
                {
                  "system": "http://loinc.org",
                  "code": "29762-2",
                  "display": "Social history Narrative"
                }
              ],
              "text": "Social"
            },
            "text": {
              "status": "generated",
              "div": "<div xmlns=\"http://www.w3.org/1999/xhtml\"><p>Alcohol consumption, 0 units/week</p></div>"
            },
            "entry": [
              {
                "reference": "urn:uuid:829f303a-55c5-402b-bfb8-f8f892b92af6",
                "type": "Observation",
                "display": "Alcohol consumption, 0 units/week"
              }
            ]
          },
          {
            "title": "Comment",
            "code": {
              "coding": [
                {
                  "system": "http://loinc.org",
                  "code": "48767-8",
                  "display": "Annotation comment [Interpretation] Narrative"
                }
              ],
              "text": "Comment"
            },
            "text": {
              "status": "generated",
              "div": "<div xmlns=\"http://www.w3.org/1999/xhtml\"><p> <i> In pain</i></p></div>"
            }
          },
          {
            "title": "Additional",
            "code": {
              "coding": [
                {
                  "system": "https://emis.com/Id/SectionHeader",
                  "code": "Additional",
                  "display": "Additional"
                }
              ],
              "text": "Additional"
            },
            "text": {
              "status": "generated",
              "div": "<div xmlns=\"http://www.w3.org/1999/xhtml\"><p>Beta blocker contraindicated</p><p>CHD monitoring</p></div>"
            },
            "entry": [
              {
                "reference": "urn:uuid:586be240-ef5b-43ff-9c4d-2b710c5c17fe",
                "type": "Observation",
                "display": "Beta blocker contraindicated"
              },
              {
                "reference": "urn:uuid:be3f4196-dee7-42e4-b384-b230a2433ecf",
                "type": "Observation",
                "display": "CHD monitoring"
              }
            ]
          }
        ]
      }
    },
    {
      "fullUrl": "urn:uuid:72e953f4-842e-4837-96f6-1c21827bbd17",
      "resource": {
        "resourceType": "Patient",
        "id": "72e953f4-842e-4837-96f6-1c21827bbd17",
        "identifier": [
          {
            "use": "usual",
            "type": {
              "coding": [
                {
                  "system": "http://terminology.hl7.org/CodeSystem/v2-0203",
                  "code": "MR"
                }
              ]
            },
            "system": "https://emis.com/Id/Patient/DBID",
            "value": "610",
            "assigner": {
              "identifier": {
                "system": "https://fhir.nhs.uk/Id/ods-organization-code",
                "value": "F83004"
              }
            }
          },
          {
            "use": "official",
            "type": {
              "coding": [
                {
                  "system": "http://terminology.hl7.org/CodeSystem/v2-0203",
                  "code": "NH"
                }
              ]
            },
            "system": "https://fhir.nhs.uk/Id/nhs-number",
            "value": "2939425320"
          }
        ],
        "active": true,
        "name": [
          {
            "family": "Dyer",
            "given": [
              "William"
            ],
            "prefix": [
              "Mr"
            ]
          }
        ],
        "gender": "male",
        "birthDate": "1919-05-27",
        "address": [
          {
            "line": [
              "74 Victoria Street",
              "Brockadale"
            ],
            "city": "Calverley",
            "postalCode": "S72"
          }
        ],
        "generalPractitioner": [
          {
            "identifier": {
              "system": "https://fhir.nhs.uk/Id/ods-organization-code",
              "value": "F83004"
            }
          }
        ]
      }
    },
    {
      "fullUrl": "urn:uuid:b08cd0b8-048b-4dca-9e43-02cdd4ddc3de",
      "resource": {
        "resourceType": "Observation",
        "id": "61062",
        "identifier": [
          {
            "use": "secondary",
            "system": "https://emis.com/Id/Event/DBID",
            "value": "61062",
            "assigner": {
              "identifier": {
                "system": "https://fhir.nhs.uk/Id/ods-organization-code",
                "value": "F83004"
              }
            }
          },
          {
            "use": "usual",
            "system": "https://emis.com/Id/Event/GUID",
            "value": "b08cd0b8-048b-4dca-9e43-02cdd4ddc3de",
            "assigner": {
              "identifier": {
                "system": "https://fhir.nhs.uk/Id/ods-organization-code",
                "value": "F83004"
              }
            }
          }
        ],
        "status": "unknown",
        "code": {
          "coding": [
            {
              "system": "http://read.info/readv2",
              "code": "1733.",
              "display": "Breathless - mild exertion"
            },
            {
              "system": "http://snomed.info/sct",
              "code": "161940008",
              "display": "Breathless - mild exertion"
            }
          ],
          "text": "Breathless - mild exertion"
        },
        "subject": {
          "reference": "urn:uuid:72e953f4-842e-4837-96f6-1c21827bbd17",
          "type": "Patient"
        },
        "effectiveDateTime": "2002-06-30T00:00:00+00:00",
        "issued": "2002-06-30T00:00:00.000+00:00",
        "performer": [
          {
            "reference": "urn:uuid:9f3c10ea-b781-4e9e-a0fa-af68bcb49cf2",
            "type": "Practitioner",
            "identifier": {
              "system": "https://fhir.hl7.org.uk/Id/gmp-number",
              "value": "G8667998"
            },
            "display": "Mrs Jean Mitchell"
          }
        ]
      }
    },
    {
      "fullUrl": "urn:uuid:609ba048-2eca-43c9-b4a1-85fa695c572c",
      "resource": {
        "resourceType": "Observation",
        "id": "61063",
        "identifier": [
          {
            "use": "secondary",
            "system": "https://emis.com/Id/Event/DBID",
            "value": "61063",
            "assigner": {
              "identifier": {
                "system": "https://fhir.nhs.uk/Id/ods-organization-code",
                "value": "F83004"
              }
            }
          },
          {
            "use": "usual",
            "system": "https://emis.com/Id/Event/GUID",
            "value": "609ba048-2eca-43c9-b4a1-85fa695c572c",
            "assigner": {
              "identifier": {
                "system": "https://fhir.nhs.uk/Id/ods-organization-code",
                "value": "F83004"
              }
            }
          }
        ],
        "status": "unknown",
        "code": {
          "coding": [
            {
              "system": "http://read.info/readv2",
              "code": "22A..",
              "display": "Body weight"
            },
            {
              "system": "http://snomed.info/sct",
              "code": "27113001",
              "display": "Body weight"
            }
          ],
          "text": "O/E - weight, 70 Kg"
        },
        "subject": {
          "reference": "urn:uuid:72e953f4-842e-4837-96f6-1c21827bbd17",
          "type": "Patient"
        },
        "effectiveDateTime": "2002-06-30T00:00:00+00:00",
        "issued": "2002-06-30T00:00:00.000+00:00",
        "performer": [
          {
            "reference": "urn:uuid:9f3c10ea-b781-4e9e-a0fa-af68bcb49cf2",
            "type": "Practitioner",
            "identifier": {
              "system": "https://fhir.hl7.org.uk/Id/gmp-number",
              "value": "G8667998"
            },
            "display": "Mrs Jean Mitchell"
          }
        ],
        "valueQuantity": {
          "value": 70,
          "unit": "Kg",
          "system": "http://unitsofmeasure.org",
          "code": "kg"
        }
      }
    },
    {
      "fullUrl": "urn:uuid:829f303a-55c5-402b-bfb8-f8f892b92af6",
      "resource": {
        "resourceType": "Observation",
        "id": "61064",
        "identifier": [
          {
            "use": "secondary",
            "system": "https://emis.com/Id/Event/DBID",
            "value": "61064",
            "assigner": {
              "identifier": {
                "system": "https://fhir.nhs.uk/Id/ods-organization-code",
                "value": "F83004"
              }
            }
          },
          {
            "use": "usual",
            "system": "https://emis.com/Id/Event/GUID",
            "value": "829f303a-55c5-402b-bfb8-f8f892b92af6",
            "assigner": {
              "identifier": {
                "system": "https://fhir.nhs.uk/Id/ods-organization-code",
                "value": "F83004"
              }
            }
          }
        ],
        "status": "unknown",
        "code": {
          "coding": [
            {
              "system": "http://read.info/readv2",
              "code": "136..",
              "display": "Alcohol consumption"
            },
            {
              "system": "http://snomed.info/sct",
              "code": "160573003",
              "display": "Alcohol consumption"
            }
          ],
          "text": "Alcohol consumption, 0 units/week"
        },
        "subject": {
          "reference": "urn:uuid:72e953f4-842e-4837-96f6-1c21827bbd17",
          "type": "Patient"
        },
        "effectiveDateTime": "2002-06-30T00:00:00+00:00",
        "issued": "2002-06-30T00:00:00.000+00:00",
        "performer": [
          {
            "reference": "urn:uuid:9f3c10ea-b781-4e9e-a0fa-af68bcb49cf2",
            "type": "Practitioner",
            "identifier": {
              "system": "https://fhir.hl7.org.uk/Id/gmp-number",
              "value": "G8667998"
            },
            "display": "Mrs Jean Mitchell"
          }
        ],
        "valueQuantity": {
          "value": 0,
          "unit": "units/week",
          "system": "http://unitsofmeasure.org",
          "code": "/wk"
        }
      }
    },
    {
      "fullUrl": "urn:uuid:586be240-ef5b-43ff-9c4d-2b710c5c17fe",
      "resource": {
        "resourceType": "Observation",
        "id": "61066",
        "identifier": [
          {
            "use": "secondary",
            "system": "https://emis.com/Id/Event/DBID",
            "value": "61066",
            "assigner": {
              "identifier": {
                "system": "https://fhir.nhs.uk/Id/ods-organization-code",
                "value": "F83004"
              }
            }
          },
          {
            "use": "usual",
            "system": "https://emis.com/Id/Event/GUID",
            "value": "586be240-ef5b-43ff-9c4d-2b710c5c17fe",
            "assigner": {
              "identifier": {
                "system": "https://fhir.nhs.uk/Id/ods-organization-code",
                "value": "F83004"
              }
            }
          }
        ],
        "status": "unknown",
        "code": {
          "coding": [
            {
              "system": "http://read.info/readv2",
              "code": "8I26.",
              "display": "Beta blocker contraindicated"
            },
            {
              "system": "http://snomed.info/sct",
              "code": "315062004",
              "display": "Beta blocker contraindicated"
            }
          ],
          "text": "Beta blocker contraindicated"
        },
        "subject": {
          "reference": "urn:uuid:72e953f4-842e-4837-96f6-1c21827bbd17",
          "type": "Patient"
        },
        "effectiveDateTime": "2002-06-30T00:00:00+00:00",
        "issued": "2002-06-30T00:00:00.000+00:00",
        "performer": [
          {
            "reference": "urn:uuid:9f3c10ea-b781-4e9e-a0fa-af68bcb49cf2",
            "type": "Practitioner",
            "identifier": {
              "system": "https://fhir.hl7.org.uk/Id/gmp-number",
              "value": "G8667998"
            },
            "display": "Mrs Jean Mitchell"
          }
        ]
      }
    },
    {
      "fullUrl": "urn:uuid:be3f4196-dee7-42e4-b384-b230a2433ecf",
      "resource": {
        "resourceType": "Observation",
        "id": "61067",
        "identifier": [
          {
            "use": "secondary",
            "system": "https://emis.com/Id/Event/DBID",
            "value": "61067",
            "assigner": {
              "identifier": {
                "system": "https://fhir.nhs.uk/Id/ods-organization-code",
                "value": "F83004"
              }
            }
          },
          {
            "use": "usual",
            "system": "https://emis.com/Id/Event/GUID",
            "value": "be3f4196-dee7-42e4-b384-b230a2433ecf",
            "assigner": {
              "identifier": {
                "system": "https://fhir.nhs.uk/Id/ods-organization-code",
                "value": "F83004"
              }
            }
          }
        ],
        "status": "unknown",
        "code": {
          "coding": [
            {
              "system": "http://read.info/readv2",
              "code": "662N.",
              "display": "CHD monitoring"
            },
            {
              "system": "http://snomed.info/sct",
              "code": "170601008",
              "display": "CHD monitoring"
            }
          ],
          "text": "CHD monitoring"
        },
        "subject": {
          "reference": "urn:uuid:72e953f4-842e-4837-96f6-1c21827bbd17",
          "type": "Patient"
        },
        "effectiveDateTime": "2002-06-30T00:00:00+00:00",
        "issued": "2002-06-30T00:00:00.000+00:00",
        "performer": [
          {
            "reference": "urn:uuid:9f3c10ea-b781-4e9e-a0fa-af68bcb49cf2",
            "type": "Practitioner",
            "identifier": {
              "system": "https://fhir.hl7.org.uk/Id/gmp-number",
              "value": "G8667998"
            },
            "display": "Mrs Jean Mitchell"
          }
        ]
      }
    },
    {
      "fullUrl": "urn:uuid:9f3c10ea-b781-4e9e-a0fa-af68bcb49cf2",
      "resource": {
        "resourceType": "Practitioner",
        "id": "9f3c10ea-b781-4e9e-a0fa-af68bcb49cf2",
        "identifier": [
          {
            "system": "https://fhir.hl7.org.uk/Id/gmp-number",
            "value": "G8667998"
          }
        ],
        "name": [
          {
            "text": "Mrs Jean Mitchell"
          }
        ]
      }
    }
  ]
}
